time,seconds_elapsed,z,y,x
1771628578920632800,0.1026328125,0,0,0
1771628578939432000,0.121431884765625,0.03476524353027344,-0.03655445575714111,0.022750720381736755
1771628578958231300,0.140231201171875,0.1065359115600586,-0.0628974437713623,0.039511412382125854
1771628578977030400,0.159030517578125,0.038120269775390625,-0.06697332859039307,0.1375962197780609
1771628578995829500,0.17782958984375,-0.05345630645751953,-0.025693178176879883,0.07292106747627258
1771628579014628600,0.196628662109375,-0.16236495971679688,0.022725224494934082,-0.06889241933822632
1771628579033427700,0.215427734375,-0.19826316833496094,0.05122721195220947,-0.09703777730464935
1771628579052226800,0.234226806640625,-0.15324687957763672,-0.026069045066833496,0.06721028685569763
1771628579071026000,0.25302587890625,-0.06061553955078125,-0.05823385715484619,0.019858598709106445
1771628579089825000,0.271824951171875,0.011408805847167969,-0.053046464920043945,-0.01809746026992798
1771628579108624100,0.2906240234375,-0.1117410659790039,0.014981746673583984,0.0035768747329711914
1771628579127423200,0.30942333984375,-0.06185150146484375,0.1273401975631714,0.0825323760509491
1771628579146222600,0.32822265625,0.04233074188232422,0.08181238174438477,0.2402121126651764
1771628579165021700,0.347021728515625,0.16902732849121094,-0.006718039512634277,0.09590154886245728
1771628579183820800,0.36582080078125,0.42986392974853516,-0.09921836853027344,-0.11871044337749481
1771628579202620000,0.384619873046875,0.00006198883056640625,-0.0462031364440918,-0.21188388764858246
1771628579221419000,0.4034189453125,0.0018396377563476562,-0.09108507633209229,-0.1610725224018097
1771628579240218000,0.422218017578125,-0.14881134033203125,-0.007685184478759766,0.06565225124359131
1771628579259017200,0.441017333984375,-0.2260112762451172,0.003197908401489258,-0.1941705197095871
1771628579277816300,0.45981640625,-0.2538909912109375,-0.09043419361114502,-0.12440304458141327
1771628579296615400,0.478615478515625,0.004559516906738281,-0.05933523178100586,-0.009642079472541809
1771628579315414800,0.497414794921875,0.6102123260498047,-0.17570173740386963,-0.07685545086860657
1771628579334213600,0.516213623046875,0.5939311981201172,-0.03107142448425293,-0.38471657037734985
1771628579353013000,0.535012939453125,0.4530315399169922,-0.04945242404937744,-0.08463051915168762
1771628579371812000,0.55381201171875,0.3744831085205078,-0.06863284111022949,0.30630818009376526
1771628579390611200,0.572611083984375,0.14113616943359375,-0.0007919073104858398,0.0685967206954956
1771628579409410300,0.591410400390625,-0.22242450714111328,0.07807159423828125,-0.256913423538208
1771628579428209400,0.61020947265625,-0.40728282928466797,0.07032108306884766,-0.15667389333248138
1771628579447008500,0.629008544921875,-0.25899505615234375,0.07572221755981445,0.001846224069595337
1771628579465807600,0.6478076171875,-0.044200897216796875,-0.0318523645401001,0.006895214319229126
1771628579484606700,0.666606689453125,0.02645111083984375,-0.044687628746032715,0.09073156118392944
1771628579503405800,0.68540576171875,-0.11748123168945312,0.004452824592590332,0.04942452907562256
1771628579522205200,0.704205078125,-0.04555988311767578,0.08811569213867188,0.034010350704193115
1771628579541004000,0.723004150390625,0.025348663330078125,0.027894020080566406,0.04444536566734314
1771628579559803400,0.741803466796875,0.04893302917480469,0.004191398620605469,0.005045652389526367
1771628579578602500,0.7606025390625,-0.10254287719726562,0.10867071151733398,0.01985672116279602
1771628579597401600,0.779401611328125,-0.03954792022705078,0.09167003631591797,-0.03690694272518158
1771628579616200700,0.79820068359375,-0.060272216796875,-0.06406664848327637,-0.21204471588134766
1771628579634999800,0.816999755859375,0.10729789733886719,-0.10901141166687012,-0.08987060189247131
1771628579653799000,0.835798828125,0.14735126495361328,-0.016618967056274414,0.047252535820007324
1771628579672598000,0.854597900390625,0.21338367462158203,0.01807999610900879,0.06179971992969513
1771628579691397000,0.873397216796875,0.08266639709472656,0.007626175880432129,-0.01444154977798462
1771628579710196200,0.8921962890625,-0.09116649627685547,0.05833244323730469,0.1655074805021286
1771628579728995300,0.910995361328125,-0.34332847595214844,0.06718993186950684,-0.012177601456642151
1771628579747794400,0.92979443359375,-0.23079681396484375,0.006426811218261719,0.016161233186721802
1771628579766593800,0.94859375,-0.049767494201660156,-0.031082868576049805,-0.18624800443649292
1771628579785393000,0.967392822265625,-0.10831069946289062,0.04392290115356445,-0.0604744553565979
1771628579804192000,0.98619189453125,0.05097770690917969,0.07065856456756592,0.15426866710186005
1771628579822991000,1.0049912109375,0.34043025970458984,0.01779651641845703,0.19351181387901306
1771628579841790200,1.023790283203125,0.5122346878051758,-0.013245224952697754,0.025201857089996338
1771628579860589300,1.04258935546875,0.09714317321777344,0.004750967025756836,-0.19775336980819702
1771628579879388400,1.061388427734375,-0.025583267211914062,-0.01571333408355713,-0.3085261881351471
1771628579898187500,1.0801875,0.2558555603027344,-0.005442500114440918,-0.34194719791412354
1771628579916986600,1.098986572265625,-0.04732513427734375,0.010700583457946777,-0.20763030648231506
1771628579935785700,1.11778564453125,-0.4672269821166992,0.07145631313323975,0.12095865607261658
1771628579954585000,1.136585205078125,-0.7989463806152344,0.09036731719970703,-0.013240471482276917
1771628579973384200,1.15538427734375,-0.5260276794433594,0.019364476203918457,-0.22358441352844238
1771628579992183300,1.174183349609375,-0.10146427154541016,-0.12593543529510498,-0.25844863057136536
1771628580010982400,1.192982421875,0.24249267578125,-0.16213595867156982,-0.09226721525192261
1771628580029781500,1.211781494140625,0.3721122741699219,-0.1203312873840332,-0.11647413671016693
1771628580048580600,1.23058056640625,0.3388099670410156,-0.09423232078552246,-0.06126650050282478
1771628580067379700,1.249379638671875,0.3011770248413086,-0.13814330101013184,-0.06633491069078445
1771628580086178800,1.2681787109375,0.2429943084716797,-0.06711089611053467,-0.08308631181716919
1771628580104978000,1.28697802734375,-0.054808616638183594,0.07805752754211426,0.08013400435447693
1771628580123777300,1.30577734375,-0.38134098052978516,0.1048816442489624,0.06573192775249481
1771628580142576000,1.324576171875,-0.3146047592163086,0.033669233322143555,0.057351648807525635
1771628580161375500,1.34337548828125,0.07479572296142578,0.019254207611083984,0.09373459219932556
1771628580180174300,1.36217431640625,0.3431224822998047,-0.05655860900878906,0.1693934053182602
1771628580198973700,1.3809736328125,0.4100809097290039,-0.07679915428161621,-0.09245146811008453
1771628580217772800,1.399772705078125,0.14624691009521484,-0.0007458925247192383,-0.13654004037380219
1771628580236572000,1.418572021484375,-0.18733787536621094,0.06573617458343506,0.058243528008461
1771628580255371000,1.43737109375,-0.11031913757324219,0.05873453617095947,0.14937624335289001
1771628580274170000,1.456170166015625,-0.008769989013671875,0.06918156147003174,0.06056773662567139
1771628580292969200,1.47496923828125,-0.13917827606201172,0.06823372840881348,-0.014707818627357483
1771628580311768300,1.493768310546875,-0.012468338012695312,0.052423954010009766,0.09333814680576324
1771628580330567400,1.5125673828125,-0.00029659271240234375,-0.0055103302001953125,0.14628879725933075
1771628580349366500,1.531366455078125,-0.1386699676513672,0.010591387748718262,-0.05624373257160187
1771628580368166000,1.550165771484375,-0.2742433547973633,0.04892098903656006,-0.11678991466760635
1771628580386965000,1.568965087890625,-0.014690399169921875,0.047704219818115234,0.09639336168766022
1771628580405764000,1.58776416015625,0.40009403228759766,-0.15300285816192627,0.007962271571159363
1771628580424563200,1.606563232421875,0.6528453826904297,-0.2553699016571045,-0.1225723922252655
1771628580443362300,1.6253623046875,0.3282756805419922,-0.19653701782226562,-0.13441872596740723
1771628580462161400,1.644161376953125,-0.006682395935058594,-0.21418941020965576,-0.07648569345474243
1771628580480960500,1.66296044921875,0.14402484893798828,-0.23021435737609863,-0.220554918050766
1771628580499759600,1.681759521484375,0.2682075500488281,-0.14777898788452148,0.0742873102426529
1771628580518558700,1.700558837890625,0.15369415283203125,0.09601616859436035,0.4306153357028961
1771628580537357800,1.71935791015625,-0.19045352935791016,0.3136395215988159,0.5240702033042908
1771628580556157200,1.7381572265625,-0.7193841934204102,0.46183955669403076,0.21114717423915863
1771628580574956000,1.7569560546875,-1.4926586151123047,0.4004781246185303,-0.17170757055282593
1771628580593755400,1.77575537109375,-0.8695354461669922,0.23811936378479004,-0.1708821952342987
1771628580612554500,1.794554443359375,-0.3107309341430664,0.004328250885009766,0.022564709186553955
1771628580631353600,1.813353515625,0.039485931396484375,-0.0791006088256836,-0.00853845477104187
1771628580650152700,1.832152587890625,0.4244108200073242,-0.023345947265625,0.16903986036777496
1771628580668951800,1.850951904296875,0.5008354187011719,0.05560338497161865,0.1261218935251236
1771628580687751000,1.8697509765625,0.3835439682006836,0.11901438236236572,-0.06501026451587677
1771628580706550000,1.888550048828125,0.21240615844726562,0.13024520874023438,-0.10681527853012085
1771628580725349000,1.90734912109375,0.11266040802001953,0.08696889877319336,0.04149748384952545
1771628580744148200,1.926148193359375,0.02757549285888672,-0.009063720703125,-0.020488709211349487
1771628580762947300,1.944947265625,-0.1558675765991211,-0.030489563941955566,-0.13734330236911774
1771628580781746400,1.963746337890625,-0.2873344421386719,0.00021791458129882812,-0.11579906940460205
1771628580800545800,1.9825458984375,-0.07491111755371094,0.06232607364654541,0.1136377602815628
1771628580819344600,2.0013447265625,0.28880882263183594,0.08524298667907715,0.09379242360591888
1771628580838144000,2.02014404296875,0.19731616973876953,0.0656963586807251,0.04213547706604004
1771628580856943000,2.038943115234375,0.05825233459472656,0.019828200340270996,0.04483063519001007
1771628580875742200,2.0577421875,0.2105569839477539,-0.014972329139709473,0.09244798123836517
1771628580894541300,2.076541259765625,0.34033679962158203,-0.0546339750289917,0.11879751086235046
1771628580913340400,2.09534033203125,0.031879425048828125,-0.07850289344787598,0.07021740078926086
1771628580932139500,2.114139404296875,-0.07784461975097656,-0.0002853870391845703,0.03888717293739319
1771628580950938600,2.132938720703125,-0.2480173110961914,0.04080402851104736,0.07813432812690735
1771628580969737700,2.15173779296875,-0.2708406448364258,0.03999483585357666,0.02922096848487854
1771628580988536800,2.170536865234375,-0.14107036590576172,-0.060098886489868164,-0.13149650394916534
1771628581007336000,2.1893359375,-0.01009368896484375,-0.14221417903900146,-0.1864236444234848
1771628581026135300,2.20813525390625,0.1960773468017578,-0.10932135581970215,0.046865642070770264
1771628581044934400,2.226934326171875,0.2188854217529297,-0.10470747947692871,0.11731266975402832
1771628581063733500,2.2457333984375,0.08685016632080078,-0.07395386695861816,-0.02812175452709198
1771628581082532600,2.26453271484375,-0.23630809783935547,-0.003393888473510742,-0.11335724592208862
1771628581101331700,2.283331787109375,-0.31557750701904297,0.06269097328186035,0.10249552130699158
1771628581120130800,2.302130859375,-0.03575706481933594,0.018265485763549805,0.13666781783103943
1771628581138930000,2.320929931640625,0.009570121765136719,-0.043595194816589355,0.040452152490615845
1771628581157729000,2.33972900390625,-0.26027488708496094,-0.040032029151916504,0.0007735788822174072
1771628581176528100,2.358528076171875,-0.17628955841064453,-0.016659975051879883,-0.038797542452812195
1771628581195327200,2.3773271484375,0.07780075073242188,-0.05030369758605957,-0.1055167019367218
1771628581214126300,2.396126220703125,0.18923664093017578,-0.06975734233856201,-0.14056262373924255
1771628581232925700,2.41492578125,0.09130859375,-0.034220337867736816,-0.05283927917480469
1771628581251724500,2.433724609375,0.05833721160888672,0.04968583583831787,0.17274156212806702
1771628581270524000,2.45252392578125,0.017678260803222656,0.07305264472961426,0.07486414909362793
1771628581289323000,2.471322998046875,0.05081462860107422,0.020060181617736816,0.12099403142929077
1771628581308122000,2.4901220703125,-0.047122955322265625,0.050489187240600586,0.07641911506652832
1771628581326921200,2.508921142578125,-0.1375589370727539,0.1462191343307495,0.07957404851913452
1771628581345720300,2.52772021484375,-0.15558338165283203,0.22795212268829346,0.16551926732063293
1771628581364519400,2.54651953125,-0.28307247161865234,0.2709531784057617,0.008035987615585327
1771628581383318500,2.565318603515625,-0.36516857147216797,0.24299383163452148,-0.0915410965681076
1771628581402117600,2.58411767578125,0.16149139404296875,0.2533515691757202,-0.13987696170806885
1771628581420916700,2.602916748046875,0.11132431030273438,-0.5043250322341919,0.8149939775466919
1771628581439715800,2.6217158203125,-0.03696250915527344,-0.16292548179626465,-0.31444647908210754
1771628581458515200,2.64051513671875,-0.25460147857666016,0.33467793464660645,0.423581600189209
1771628581477314000,2.65931396484375,-0.7383213043212891,0.48394298553466797,0.19022279977798462
1771628581496113400,2.678113525390625,-0.4500617980957031,0.5229049921035767,0.07891508936882019
1771628581514912300,2.696912353515625,0.09312057495117188,0.3655831813812256,0.01303189992904663
1771628581533711600,2.715711669921875,0.29871654510498047,0.17170679569244385,-0.06686320900917053
1771628581552510700,2.7345107421875,-0.018392562866210938,0.2040395736694336,-0.016296297311782837
1771628581571309800,2.753309814453125,-0.0699453353881836,0.22410595417022705,-0.27099573612213135
1771628581590109000,2.77210888671875,0.13332462310791016,0.16138935089111328,-0.33011144399642944
1771628581608908000,2.790907958984375,0.15776538848876953,0.07516276836395264,-0.2396925836801529
1771628581627707100,2.80970703125,0.043877601623535156,-0.04595685005187988,-0.22189028561115265
1771628581646506200,2.82850634765625,-0.21291828155517578,-0.17134594917297363,-0.3997247815132141
1771628581665305300,2.847305419921875,-0.44374561309814453,-0.2415233850479126,-0.4108641743659973
1771628581684104400,2.8661044921875,-0.42470645904541016,-0.3103705644607544,-0.42564278841018677
1771628581702903600,2.884903564453125,-0.43213558197021484,-0.2698831558227539,-0.6180427074432373
1771628581721703000,2.903702880859375,-0.7581110000610352,-0.05903971195220947,-0.7322988510131836
1771628581740502000,2.922501953125,-0.9905710220336914,0.30611658096313477,-0.8861367702484131
1771628581759301000,2.941301025390625,-0.2707786560058594,0.5417637825012207,-0.8756228089332581
1771628581778100200,2.960100341796875,1.0588951110839844,0.4878556728363037,-0.6156051158905029
1771628581796899300,2.9788994140625,2.1753692626953125,0.30329763889312744,-0.4774007499217987
1771628581815698400,2.997698486328125,2.4110851287841797,0.24774861335754395,-0.5088404417037964
1771628581834497500,3.01649755859375,1.7405261993408203,0.2576289176940918,-0.6471751928329468
1771628581853296600,3.035296630859375,1.063995361328125,0.16860485076904297,-0.5746713280677795
1771628581872095700,3.054095703125,-0.017221450805664062,0.08080446720123291,-0.6640397310256958
1771628581890894800,3.072894775390625,-0.3062582015991211,0.015259742736816406,-1.1233805418014526
1771628581909694000,3.09169384765625,0.28342151641845703,-0.19859588146209717,-1.0176643133163452
1771628581928493000,3.1104931640625,-0.3197669982910156,-0.18490731716156006,-0.25156497955322266
1771628581947292200,3.129292236328125,-1.1900148391723633,0.06806623935699463,-0.07578864693641663
1771628581966091500,3.148091552734375,-1.7155609130859375,0.3758126497268677,0.08961251378059387
1771628581984890400,3.166890380859375,-1.8483467102050781,0.46095991134643555,-0.07646182179450989
1771628582003689700,3.185689697265625,-1.188262939453125,0.3749074935913086,-0.36612123250961304
1771628582022488800,3.20448876953125,-0.40539073944091797,0.310155987739563,-0.19338032603263855
1771628582041288000,3.223287841796875,-0.1294403076171875,0.267291784286499,-0.27561062574386597
1771628582060087000,3.242087158203125,0.5817584991455078,0.24930071830749512,-0.803985595703125
1771628582078886100,3.26088623046875,1.3051567077636719,0.37247133255004883,-0.8935537338256836
1771628582097685200,3.279685302734375,0.9081020355224609,0.48973143100738525,-0.8663641214370728
1771628582116484400,3.298484375,-0.049538612365722656,0.4774296283721924,-0.7783293128013611
1771628582135283500,3.317283447265625,-0.153106689453125,0.27066469192504883,-0.6220272779464722
1771628582154082600,3.33608251953125,0.37206172943115234,0.06990432739257812,-0.5439141988754272
1771628582172881700,3.354881591796875,0.7519264221191406,-0.017111778259277344,-0.4056144058704376
1771628582191681000,3.373680908203125,0.9757270812988281,0.015669584274291992,-0.4690195322036743
1771628582210479900,3.39247998046875,0.8336734771728516,0.1424710750579834,-0.3558623194694519
1771628582229279200,3.411279296875,0.2812490463256836,0.26050496101379395,-0.3262990713119507
1771628582248078000,3.430078125,-0.06418609619140625,0.31498003005981445,-0.35222819447517395
1771628582266877400,3.44887744140625,0.23288249969482422,0.3378109931945801,-0.30947133898735046
1771628582285676500,3.467676513671875,0.6122140884399414,0.23002731800079346,-0.7090139985084534
1771628582304475600,3.4864755859375,0.7008113861083984,0.00768280029296875,-0.964984118938446
1771628582323274800,3.505274658203125,0.6385707855224609,-0.18645763397216797,-1.0790811777114868
1771628582342073900,3.524073974609375,0.5118989944458008,-0.33003711700439453,-0.9491302371025085
1771628582360873000,3.542873046875,0.527766227722168,-0.33888745307922363,-0.879570722579956
1771628582379672000,3.561672119140625,0.23875045776367188,-0.2682020664215088,-0.6673895120620728
1771628582398471200,3.58047119140625,-0.1458568572998047,-0.07146191596984863,-0.42308712005615234
1771628582417270300,3.599270263671875,-0.21495342254638672,0.03861415386199951,0.028599083423614502
1771628582436069400,3.6180693359375,0.016542434692382812,0.12115657329559326,0.3145868182182312
1771628582454868700,3.63686865234375,0.09374618530273438,0.3193342685699463,0.10677199065685272
1771628582473667600,3.65566748046875,0.12046051025390625,0.463295578956604,-0.07467740774154663
1771628582492467000,3.674467041015625,0.3325519561767578,0.37279486656188965,-0.37877002358436584
1771628582511266000,3.69326611328125,0.7286176681518555,0.17111098766326904,-0.44025954604148865
1771628582530065200,3.712065185546875,0.6005687713623047,-0.10805952548980713,0.06257203221321106
1771628582548864300,3.7308642578125,0.1463470458984375,-0.3596491813659668,0.8234978318214417
1771628582567663400,3.749663330078125,-0.0064258575439453125,-0.4611140489578247,1.093792200088501
1771628582586462500,3.76846240234375,-0.35800743103027344,-0.5498790740966797,1.1671366691589355
1771628582605261600,3.787261474609375,-1.1981067657470703,-0.5255075693130493,1.1471853256225586
1771628582624060700,3.806060791015625,-1.7352075576782227,-0.3035637140274048,0.9890444278717041
1771628582642859800,3.82485986328125,-1.8284873962402344,0.09557020664215088,0.7564119696617126
1771628582661659000,3.843658935546875,-1.4355268478393555,0.3913842439651489,0.3610941171646118
1771628582680458000,3.8624580078125,-0.7565155029296875,0.5167821645736694,0.061731383204460144
1771628582699257000,3.881257080078125,0.5141410827636719,0.34470462799072266,-0.04849451780319214
1771628582718056400,3.900056396484375,1.7710447311401367,-0.018067359924316406,-0.09417037665843964
1771628582736855300,3.918855224609375,2.384824752807617,-0.4510946273803711,0.07789082825183868
1771628582755654700,3.937654541015625,1.7763872146606445,-0.5710418224334717,0.3503493666648865
1771628582774453800,3.956453857421875,0.21162986755371094,-0.27599668502807617,0.40660208463668823
1771628582793252900,3.9752529296875,-1.1454486846923828,-0.02776491641998291,0.5110090374946594
1771628582821451500,4.003451416015625,-1.6863431930541992,0.14483201503753662,0.6999800801277161
1771628582840250600,4.022250732421875,-1.4917421340942383,0.20777344703674316,0.7899582982063293
1771628582859049700,4.0410498046875,-1.1381425857543945,0.30279791355133057,0.7474139928817749
1771628582877848800,4.059848876953125,-0.526519775390625,0.2815840244293213,0.5799622535705566
1771628582896648000,4.07864794921875,0.011468887329101562,0.19562005996704102,0.6021104454994202
1771628582915447000,4.097447021484375,0.5036706924438477,0.022400975227355957,0.9078985452651978
1771628582934246100,4.11624609375,0.8624248504638672,-0.09968972206115723,1.045099139213562
1771628582953045200,4.135045166015625,0.44591617584228516,0.027384161949157715,0.568143904209137
1771628582971844400,4.15384423828125,-0.39957237243652344,0.2585030794143677,0.06468605995178223
1771628582990643700,4.172643798828125,-0.9950704574584961,0.3649272918701172,-0.1926218569278717
1771628583009442600,4.191442626953125,-0.6691102981567383,0.3670656681060791,-0.14716650545597076
1771628583028242000,4.210241943359375,-0.1687450408935547,0.43956923484802246,-0.07545527815818787
1771628583047041000,4.229041015625,0.3262920379638672,0.5271002054214478,0.14780333638191223
1771628583065840000,4.247840087890625,0.9140510559082031,0.5672987699508667,0.46454817056655884
1771628583084639200,4.26663916015625,1.0658740997314453,0.6084420680999756,0.40889373421669006
1771628583103438300,4.285438232421875,0.729680061340332,0.7146413326263428,0.07899165153503418
1771628583122237400,4.304237548828125,0.049323081970214844,0.7017948627471924,-0.11525683104991913
1771628583141036500,4.32303662109375,0.12674903869628906,0.36922597885131836,-0.4488615393638611
1771628583159835600,4.341835693359375,1.5776405334472656,-0.13608980178833008,-0.17021867632865906
1771628583178634800,4.360634765625,2.202610969543457,-0.28587019443511963,0.21837599575519562
1771628583197433900,4.379433837890625,1.0083580017089844,-0.08422136306762695,0.27857497334480286
1771628583216233000,4.39823291015625,0.010625839233398438,0.21399760246276855,0.4644223749637604
1771628583235032000,4.417031982421875,-0.7454557418823242,0.3093618154525757,0.46012669801712036
1771628583253831400,4.43583154296875,-1.0563173294067383,0.22287535667419434,0.4182875454425812
1771628583272630300,4.45463037109375,-1.0139780044555664,-0.014252901077270508,0.0789189487695694
1771628583291429600,4.4734296875,-0.6803960800170898,-0.24142324924468994,-0.1376347839832306
1771628583310228700,4.492228759765625,-0.6804075241088867,-0.5127537250518799,-0.18998295068740845
1771628583329027800,4.51102783203125,-0.3567018508911133,-0.9230412244796753,-0.15413177013397217
1771628583347827000,4.529826904296875,-0.1568460464477539,-1.3495359420776367,0.07352946698665619
1771628583376025600,4.558025634765625,0.011038780212402344,-1.5473382472991943,0.25803112983703613
1771628583394824700,4.57682470703125,-0.4758272171020508,-1.3359218835830688,0.13572517037391663
1771628583413623800,4.595623779296875,-0.5245485305786133,-1.1072438955307007,-0.02106890082359314
1771628583432423000,4.6144228515625,-0.24608898162841797,-0.7779148817062378,-0.09460487961769104
1771628583451222000,4.633221923828125,-0.32878589630126953,-0.30316102504730225,-0.1332242488861084
1771628583470021000,4.652021240234375,-0.16236114501953125,-0.019444584846496582,-0.17236320674419403
1771628583488820200,4.6708203125,0.5727882385253906,-0.04688692092895508,-0.2783256471157074
1771628583507619300,4.689619384765625,0.8716354370117188,-0.2459653615951538,-0.6571384072303772
1771628583526418400,4.70841845703125,0.9594593048095703,-0.42401832342147827,-1.068318247795105
1771628583545217800,4.7272177734375,0.7001619338989258,-0.5368970036506653,-1.0383553504943848
1771628583564016600,4.7460166015625,-0.22464370727539062,-0.4347391128540039,-1.0152133703231812
1771628583582816000,4.76481591796875,-1.120549201965332,-0.2639942169189453,-0.9216567277908325
1771628583601614800,4.78361474609375,-1.360285758972168,-0.20939123630523682,-0.8369123339653015
1771628583620414200,4.802414306640625,-0.7810029983520508,-0.20479512214660645,-0.739677906036377
1771628583639213300,4.82121337890625,-0.2506561279296875,-0.05710482597351074,-0.39817553758621216
1771628583667412000,4.849411865234375,0.7629528045654297,-0.17673230171203613,-0.5981152057647705
1771628583686211000,4.868211181640625,0.8400335311889648,-0.26465511322021484,-0.5314658880233765
1771628583705010200,4.88701025390625,0.7717723846435547,-0.2873682975769043,-0.3346342444419861
1771628583723809300,4.905809326171875,0.643580436706543,-0.24583005905151367,-0.08021887391805649
1771628583742608400,4.9246083984375,0.14436817169189453,-0.23167812824249268,0.09140582382678986
1771628583761407500,4.943407470703125,-0.4796934127807617,-0.10561239719390869,-0.061491500586271286
1771628583780206600,4.96220654296875,-0.7763814926147461,-0.043753623962402344,-0.23224851489067078
1771628583799005700,4.981005615234375,-0.7298202514648438,-0.05093491077423096,-0.5041909217834473
1771628583817804800,4.9998046875,-0.6065101623535156,-0.2705799341201782,-0.5637033581733704
1771628583836604200,5.018604248046875,-0.36234092712402344,-0.5669851303100586,-0.5622977018356323
1771628583855403000,5.037403076171875,0.1847219467163086,-0.4977610111236572,-0.5598925352096558
1771628583874202400,5.056202392578125,0.5656061172485352,-0.3377039432525635,-0.2884712815284729
1771628583893001200,5.075001220703125,1.2537870407104492,-0.2642277479171753,0.006769254803657532
1771628583911800600,5.093800537109375,1.6614313125610352,-0.1927221417427063,0.09410186111927032
1771628583930599700,5.112599609375,1.1006603240966797,-0.1653081178665161,0.1250176578760147
1771628583949398800,5.131398681640625,0.46463775634765625,-0.035362958908081055,0.145856574177742
1771628583968198000,5.150197998046875,0.6847991943359375,0.09787702560424805,0.019300445914268494
1771628583986997000,5.1689970703125,0.8175268173217773,-0.00853121280670166,0.12278721481561661
1771628584005796000,5.187796142578125,1.2162771224975586,-0.3413677215576172,0.49351900815963745
1771628584024595200,5.20659521484375,1.1910324096679688,-0.49660634994506836,0.9572486281394958
1771628584043394300,5.225394287109375,0.5243091583251953,-0.5815377831459045,1.316096544265747
1771628584062193400,5.244193359375,-0.44138240814208984,-0.3777562379837036,1.589733362197876
1771628584080992500,5.262992431640625,-1.5385847091674805,-0.2229049801826477,1.6673638820648193
1771628584099791600,5.28179150390625,-1.7245969772338867,-0.003939151763916016,1.5854939222335815
1771628584118590700,5.3005908203125,-1.261026382446289,0.1536005735397339,1.2418601512908936
1771628584137389800,5.319389892578125,-0.7780990600585938,0.2454925775527954,0.9853447675704956
1771628584156189000,5.33818896484375,-0.6704025268554688,0.294333815574646,0.4383998215198517
1771628584174988300,5.35698828125,-0.29248905181884766,0.19371354579925537,-0.041875094175338745
1771628584193787400,5.375787353515625,0.26597118377685547,-0.0058519840240478516,-0.5364134311676025
1771628584212586500,5.39458642578125,0.7623882293701172,-0.15587258338928223,-0.6433801651000977
1771628584231385600,5.413385498046875,0.40249061584472656,-0.0899093747138977,-0.029442161321640015
1771628584250184700,5.432184814453125,0.061469078063964844,0.11003768444061279,0.38928160071372986
1771628584268983800,5.45098388671875,-0.5963582992553711,0.2901308536529541,0.23090633749961853
1771628584287783000,5.469782958984375,-0.8582077026367188,0.4763195514678955,-0.10855650901794434
1771628584306582000,5.48858203125,-0.57940673828125,0.48427772521972656,0.00822359323501587
1771628584325381000,5.507381103515625,-0.4779977798461914,0.3492177724838257,0.24963408708572388
1771628584344180200,5.52618017578125,-0.62286376953125,0.34018969535827637,0.25828224420547485
1771628584362979300,5.544979248046875,-0.5576801300048828,0.31656575202941895,0.2684849798679352
1771628584381778400,5.5637783203125,-0.3272256851196289,0.31324923038482666,0.3102772831916809
1771628584400577500,5.58257763671875,-0.10687732696533203,0.38747406005859375,0.22817474603652954
1771628584419376600,5.601376708984375,-0.5954017639160156,0.4543302059173584,0.37836694717407227
1771628584438175700,5.62017578125,-0.6097373962402344,0.739350438117981,0.19677594304084778
1771628584466374400,5.64837451171875,-0.1740865707397461,0.6845530271530151,0.29473069310188293
1771628584485173500,5.667173583984375,0.7103757858276367,0.42517226934432983,0.42240676283836365
1771628584503972600,5.68597265625,1.5713281631469727,0.202004075050354,0.700738787651062
1771628584522772000,5.70477197265625,1.5317001342773438,0.1369638442993164,0.7440981864929199
1771628584541571000,5.723571044921875,1.1499595642089844,0.41278600692749023,0.4747564494609833
1771628584560370200,5.7423701171875,0.6147041320800781,0.5590658187866211,-0.06825599074363708
1771628584579169300,5.761169189453125,0.6017446517944336,0.4846067428588867,-0.6912798881530762
1771628584597968400,5.779968505859375,0.9803781509399414,0.22860276699066162,-0.8374740481376648
1771628584616767500,5.798767578125,0.9999637603759766,0.06461644172668457,-0.48646360635757446
1771628584635566600,5.817566650390625,0.7266483306884766,-0.10871100425720215,0.14324456453323364
1771628584654365700,5.83636572265625,0.3769092559814453,-0.3078702688217163,0.48365119099617004
1771628584673164800,5.855164794921875,0.09720230102539062,-0.4192769527435303,0.8106854557991028
1771628584691964000,5.8739638671875,0.4556560516357422,-0.4614906311035156,1.0051844120025635
1771628584710763000,5.892762939453125,1.0280160903930664,-0.4289177656173706,0.7291159629821777
1771628584729562000,5.91156201171875,0.491668701171875,-0.39518529176712036,0.4429003596305847
1771628584748361200,5.930361328125,0.07181358337402344,-0.47184693813323975,0.06834015250205994
1771628584767160300,5.949160400390625,-0.18803691864013672,-0.7144685983657837,-0.2823975682258606
1771628584785959400,5.96795947265625,-0.7168655395507812,-0.9077308773994446,-0.28360986709594727
1771628584804758500,5.986758544921875,-0.9231081008911133,-1.1344292163848877,-0.3518062233924866
1771628584823557600,6.0055576171875,-0.6318778991699219,-1.2171056270599365,-0.2937653660774231
1771628584842356700,6.024356689453125,-0.8025550842285156,-1.1339476108551025,-0.034481942653656006
1771628584861156000,6.043156005859375,-1.5058536529541016,-0.9688127040863037,0.025077790021896362
1771628584879955200,6.061955078125,-1.198655128479004,-0.7534283399581909,0.28390973806381226
1771628584898754300,6.08075439453125,0.089752197265625,-0.6123799085617065,0.5489537119865417
1771628584917553400,6.099553466796875,0.6026315689086914,-0.417540967464447,0.31518587470054626
1771628584936352500,6.1183525390625,-0.09847259521484375,-0.046526312828063965,0.04206353425979614
1771628584955151600,6.137151611328125,-0.8454751968383789,0.1751394271850586,-0.11635342240333557
1771628584973950700,6.15595068359375,-1.1247148513793945,0.23224937915802002,-0.308937668800354
1771628584992749800,6.174749755859375,-0.8401613235473633,0.13769268989562988,-0.6031661033630371
1771628585011549000,6.193548828125,-0.028443336486816406,-0.2912291884422302,-0.8607207536697388
1771628585030348000,6.21234814453125,0.5918912887573242,-0.6184541583061218,-0.7582262754440308
1771628585049147100,6.231147216796875,0.05189228057861328,-0.593863308429718,-0.5796294212341309
1771628585067946200,6.2499462890625,-0.2883787155151367,-0.35576093196868896,-0.7102677822113037
1771628585086745300,6.268745361328125,-0.3747272491455078,-0.029454469680786133,-0.9085789918899536
1771628585105544400,6.28754443359375,-0.6850986480712891,0.14774227142333984,-0.8766469955444336
1771628585124343600,6.306343505859375,-0.4842643737792969,0.18201184272766113,-0.6444041728973389
1771628585143142700,6.325142578125,-0.06376934051513672,0.11910772323608398,-0.3904842734336853
1771628585161941800,6.343941650390625,0.14893531799316406,0.08962106704711914,-0.4296334385871887
1771628585180740900,6.362740966796875,0.10675048828125,0.023723483085632324,-0.38528430461883545
1771628585199540000,6.3815400390625,0.38553333282470703,-0.14829552173614502,-0.009565889835357666
1771628585218339000,6.400339111328125,0.47602367401123047,-0.2394145131111145,0.1010667085647583
1771628585237138400,6.419138427734375,0.6946401596069336,-0.038088321685791016,0.2698059380054474
1771628585255937500,6.4379375,0.9790458679199219,0.12844479084014893,0.35994774103164673
1771628585274736600,6.456736572265625,1.0262670516967773,0.09868180751800537,0.32579201459884644
1771628585293535700,6.47553564453125,1.6003694534301758,-0.16041040420532227,0.36939629912376404
1771628585312334800,6.4943349609375,2.220783233642578,-0.2961811423301697,0.2235182523727417
1771628585340533500,6.522533447265625,-0.09665203094482422,-0.1261267066001892,-0.28293755650520325
1771628585359332600,6.54133251953125,-0.8008546829223633,-0.16240930557250977,-0.35490408539772034
1771628585378131700,6.560131591796875,-0.44012928009033203,-0.529114842414856,-0.18307846784591675
1771628585396930800,6.578930908203125,0.01872730255126953,-0.824103832244873,0.14348700642585754
1771628585425129500,6.60712939453125,0.6410121917724609,-0.8744210004806519,1.0861008167266846
1771628585443928600,6.625928466796875,0.018224716186523438,-0.49112600088119507,1.3509601354599
1771628585462727700,6.644727783203125,-0.8988037109375,-0.001584768295288086,1.2072582244873047
1771628585481526800,6.66352685546875,-1.2166032791137695,0.3258845806121826,0.686115026473999
1771628585500326000,6.682325927734375,-0.8140125274658203,0.39935386180877686,0.5927852988243103
1771628585528524500,6.710524658203125,-0.39624977111816406,0.25823235511779785,0.6897833347320557
1771628585547323600,6.72932373046875,-0.04531574249267578,0.024520397186279297,0.3513273596763611
1771628585575522300,6.757522216796875,0.9749069213867188,-0.3049006462097168,0.07445013523101807
1771628585594321700,6.77632177734375,0.6985435485839844,-0.27643829584121704,0.28616172075271606
1771628585613120500,6.79512060546875,-0.4756631851196289,-0.08112895488739014,0.473372220993042
1771628585631919900,6.813919921875,-1.4397010803222656,0.10457456111907959,0.43662863969802856
1771628585650718700,6.83271875,-1.7724885940551758,0.24579691886901855,0.34912413358688354
1771628585669518000,6.85151806640625,-1.6427068710327148,0.3319448232650757,0.31705132126808167
1771628585688317200,6.870317138671875,-1.3861150741577148,0.4133775234222412,-0.021633237600326538
1771628585707116300,6.8891162109375,-0.7380447387695312,0.44459229707717896,-0.0699305534362793
1771628585725915400,6.907915283203125,0.11775016784667969,0.44667088985443115,-0.0611930787563324
1771628585744714500,6.926714599609375,0.7917089462280273,0.5084710717201233,0.12057429552078247
1771628585763513600,6.945513671875,0.9608802795410156,0.5348290801048279,0.22831475734710693
1771628585782312700,6.964312744140625,0.7852497100830078,0.4700995087623596,0.27988284826278687
1771628585801111800,6.98311181640625,0.29688453674316406,0.5216439366340637,0.100100576877594
1771628585819911000,7.001910888671875,-0.2917194366455078,0.7265575528144836,0.0704723596572876
1771628585838710000,7.0207099609375,-0.5344991683959961,0.7356023788452148,-0.06881260871887207
1771628585857509000,7.039509033203125,0.05607318878173828,0.4717622995376587,-0.3922589123249054
1771628585876308200,7.05830810546875,0.6887359619140625,0.1927701234817505,-0.3365926146507263
1771628585895107300,7.077107421875,0.3292999267578125,0.15112173557281494,-0.10355406999588013
1771628585923306000,7.105305908203125,-0.1744403839111328,0.414933443069458,0.1429012417793274
1771628585942105000,7.12410498046875,-0.19350051879882812,0.6847254037857056,0.06884336471557617
1771628585960904200,7.142904296875,-0.15201187133789062,0.7457214593887329,-0.33488860726356506
1771628585979703300,7.161703369140625,0.6997690200805664,0.3738219738006592,-0.8778213262557983
1771628585998502400,7.18050244140625,2.123049736022949,-0.015857458114624023,-0.4713875651359558
1771628586017301800,7.1993017578125,1.9911556243896484,-0.07389211654663086,0.39558708667755127
1771628586036100600,7.2181005859375,1.0027093887329102,-0.03441452980041504,1.0029808282852173
1771628586054900000,7.23689990234375,0.9597158432006836,-0.30917513370513916,1.2354882955551147
1771628586073698800,7.25569873046875,0.8754243850708008,-0.608697235584259,0.7110141515731812
1771628586092498200,7.274498291015625,0.617344856262207,-0.8067184090614319,0.23513993620872498
1771628586111297300,7.29329736328125,0.5623006820678711,-1.0312821865081787,0.17990949749946594
1771628586139496000,7.321495849609375,-0.12635517120361328,-1.039193034172058,0.34601983428001404
1771628586158295000,7.340294921875,-1.4424266815185547,-0.7752487063407898,0.038183629512786865
1771628586177094100,7.35909423828125,-2.3523082733154297,-0.558870792388916,-0.2559540569782257
1771628586195893200,7.377893310546875,-2.4611167907714844,-0.6323813199996948,-0.6269001364707947
1771628586214692400,7.3966923828125,-1.4720516204833984,-0.8940993547439575,-0.4692576229572296
1771628586233491500,7.415491455078125,-0.13667011260986328,-1.1069049835205078,-0.007520526647567749
1771628586252290600,7.43429052734375,0.7044563293457031,-1.0061107873916626,0.56687331199646
1771628586271089700,7.453089599609375,0.9083242416381836,-0.6180936694145203,0.6003701090812683
1771628586289888800,7.471888671875,0.17508411407470703,-0.0889354944229126,0.2838250994682312
1771628586308688000,7.49068798828125,-0.6197071075439453,0.31984519958496094,0.060843586921691895
1771628586327487000,7.509487060546875,-0.819117546081543,0.4375509023666382,-0.0129852294921875
1771628586346286000,7.5282861328125,0.05864143371582031,0.21914368867874146,0.07915258407592773
1771628586365085200,7.547085205078125,0.5996780395507812,-0.1436029076576233,-0.31075531244277954
1771628586383884300,7.56588427734375,0.6087245941162109,-0.2979903221130371,-0.7237701416015625
1771628586402683400,7.584683349609375,-0.24817848205566406,-0.23859524726867676,-0.9696992039680481
1771628586421482500,7.603482421875,-1.2078742980957031,-0.10408073663711548,-0.9339436292648315
1771628586440281600,7.622281494140625,-1.5410995483398438,-0.050305962562561035,-0.8297154307365417
1771628586459080700,7.641080810546875,-1.0851306915283203,-0.09093308448791504,-0.7933760285377502
1771628586477879800,7.6598798828125,-0.7718906402587891,-0.051424622535705566,-0.6299429535865784
1771628586496679000,7.678678955078125,-0.8140325546264648,0.034612298011779785,-0.3186785578727722
1771628586515478000,7.69747802734375,-0.4258556365966797,0.0018267631530761719,-0.11747920513153076
1771628586543676700,7.7256767578125,0.9069681167602539,-0.20693886280059814,0.048865705728530884
1771628586562476000,7.74447607421875,1.567124366760254,-0.2473885416984558,0.2720262110233307
1771628586581275000,7.76327490234375,1.3084754943847656,-0.12130206823348999,0.3659574091434479
1771628586600074200,7.78207421875,0.7909049987792969,-0.16033780574798584,0.08227866888046265
1771628586618873000,7.800873046875,0.8511905670166016,-0.024277806282043457,0.17397823929786682
1771628586637672400,7.81967236328125,1.399892807006836,0.13240492343902588,0.1977776288986206
1771628586656471600,7.838471435546875,1.7220039367675781,-0.011874198913574219,0.29953473806381226
1771628586675270700,7.857270751953125,1.7196474075317383,-0.3764500617980957,0.13297343254089355
1771628586694069800,7.87606982421875,0.9453163146972656,-0.6898901462554932,0.10908651351928711
1771628586712868900,7.894868896484375,0.4678964614868164,-0.8389132022857666,0.22555005550384521
1771628586731668000,7.91366796875,-0.1134347915649414,-0.8335319757461548,0.13304027915000916
1771628586750467000,7.932467041015625,-1.1418733596801758,-0.754120409488678,0.04558327794075012
1771628586769266200,7.95126611328125,-1.718379020690918,-0.4489060640335083,0.10837435722351074
1771628586788065300,7.970065185546875,-1.6530675888061523,0.037720561027526855,0.3082231283187866
1771628586806864400,7.988864501953125,-1.3327608108520508,0.2573472261428833,0.6782875061035156
1771628586825663500,8.00766357421875,-0.40989208221435547,0.3494488000869751,0.9394459128379822
1771628586844462600,8.026462646484376,-0.07225799560546875,0.30054306983947754,0.7048712968826294
1771628586863261700,8.04526171875,0.3949003219604492,0.10172504186630249,0.5273548364639282
1771628586882060800,8.064060791015624,1.0373249053955078,-0.20497965812683105,0.12672939896583557
1771628586900860000,8.08285986328125,1.4792423248291016,-0.3678889870643616,-0.11464571952819824
1771628586919659000,8.101658935546874,0.6657810211181641,-0.34299904108047485,0.22606652975082397
1771628586938458000,8.1204580078125,-0.6929731369018555,-0.11744588613510132,0.19762912392616272
1771628586957257200,8.13925732421875,-1.6600055694580078,0.1434321403503418,0.14890795946121216
1771628586976056300,8.158056396484374,-2.034377098083496,0.31828784942626953,0.002025425434112549
1771628586994855400,8.17685546875,-1.8306055068969727,0.34238141775131226,0.10150843858718872
1771628587013654500,8.195654541015625,-1.027024269104004,0.3177432417869568,0.41215354204177856
1771628587032453600,8.21445361328125,-0.4488792419433594,0.3402089476585388,0.3964771032333374
1771628587051252700,8.233252685546875,-0.06499767303466797,0.5262288451194763,0.5238300561904907
1771628587070051800,8.2520517578125,0.13486862182617188,0.6402667760848999,0.4548906087875366
1771628587088851000,8.270850830078125,0.45818233489990234,0.6702092289924622,0.6491634845733643
1771628587107650300,8.289650390625,0.4105720520019531,0.6074981093406677,0.5659221410751343
1771628587126449200,8.30844921875,0.09987735748291016,0.5770652294158936,0.24285387992858887
1771628587145248500,8.32724853515625,0.181549072265625,0.43529874086380005,-0.20417767763137817
1771628587164047400,8.34604736328125,0.5763273239135742,0.1430700421333313,-0.09616851806640625
1771628587182846500,8.364846435546875,0.24240684509277344,0.08254116773605347,0.1259104609489441
1771628587201645800,8.383645751953125,-0.43154430389404297,0.28503191471099854,0.18389153480529785
1771628587220444700,8.402444580078125,-0.8102312088012695,0.5841434001922607,-0.2068188190460205
1771628587239244000,8.421244140625,-0.6925830841064453,0.8499553203582764,-0.3742787837982178
1771628587258043000,8.44004296875,-0.26945972442626953,0.8155199289321899,-0.9486205577850342
1771628587276842200,8.45884228515625,0.6478815078735352,0.522597074508667,-1.5855045318603516
1771628587295641300,8.477641357421875,1.9048986434936523,0.2146763801574707,-1.055121660232544
1771628587314440400,8.4964404296875,2.2044334411621094,0.09201598167419434,0.06945371627807617
1771628587333239600,8.515239501953126,1.4259452819824219,-0.04211723804473877,0.9347304105758667
1771628587352038700,8.53403857421875,0.5026712417602539,-0.3955106735229492,1.3141734600067139
1771628587370837800,8.552837646484376,0.9595880508422852,-0.7890021800994873,1.2439459562301636
1771628587389636900,8.571636962890626,1.02093505859375,-1.1001452207565308,0.9679908156394958
1771628587408436000,8.59043603515625,0.9508180618286133,-1.5050747394561768,0.5463037490844727
1771628587427235000,8.609235107421876,1.1323528289794922,-1.4886125326156616,0.09239029884338379
1771628587446034200,8.6280341796875,-0.02100658416748047,-1.1223182678222656,-0.16175386309623718
1771628587464833300,8.646833251953124,-1.446497917175293,-0.7573568224906921,-0.1748533844947815
1771628587483632400,8.66563232421875,-1.8637104034423828,-0.6559047698974609,-0.3582724630832672
1771628587502431500,8.684431396484374,-1.098703384399414,-0.7899570465087891,-0.4910350441932678
1771628587521230600,8.703230712890624,-0.1124868392944336,-0.8430737257003784,-0.049869149923324585
1771628587540029700,8.72202978515625,0.7946929931640625,-0.9531334042549133,0.38877466320991516
1771628587558828800,8.740828857421874,0.8677511215209961,-0.869376540184021,0.5512266159057617
1771628587587027500,8.76902734375,-0.6467876434326172,-0.20853829383850098,0.22179275751113892
1771628587605826600,8.78782666015625,-1.5437755584716797,0.31613123416900635,0.2854190468788147
1771628587624625700,8.806625732421875,-2.0795960426330566,0.48177027702331543,0.4110269844532013
1771628587643424800,8.8254248046875,-1.508671760559082,0.17164301872253418,0.19574040174484253
1771628587662224000,8.844223876953125,-0.42144298553466797,-0.31380194425582886,-0.1818423718214035
1771628587681023000,8.86302294921875,0.06690025329589844,-0.6014525890350342,-0.3951887786388397
1771628587699822000,8.881822021484375,-0.1862630844116211,-0.46942418813705444,-0.2886880040168762
1771628587718621200,8.90062109375,-0.5906009674072266,-0.11209040880203247,-0.305803120136261
1771628587737420300,8.919420166015625,-0.5670804977416992,0.11170274019241333,-0.4617678225040436
1771628587756219400,8.938219482421875,-0.11026859283447266,0.1642581820487976,-0.4974885582923889
1771628587784418000,8.96641796875,-0.1772909164428711,0.24997037649154663,-0.503312885761261
1771628587803217200,8.985217041015625,0.18766307830810547,0.08768343925476074,-0.7116330862045288
1771628587822016300,9.004016357421875,0.8763580322265625,-0.19203698635101318,-0.7355664372444153
1771628587840815400,9.0228154296875,0.8048238754272461,-0.2914699912071228,-0.45467042922973633
1771628587859614500,9.041614501953125,0.21472835540771484,-0.1919805407524109,-0.5118913650512695
1771628587878413600,9.06041357421875,-0.21270275115966797,-0.0331074595451355,-0.36565688252449036
1771628587897212700,9.079212646484375,0.11821460723876953,0.22717535495758057,-0.14447534084320068
1771628587916011800,9.09801171875,1.0113916397094727,0.3882589340209961,0.3866114020347595
1771628587934811100,9.11681103515625,2.03665828704834,0.41267168521881104,0.9636164307594299
1771628587953610000,9.13560986328125,2.9867115020751953,0.28452861309051514,0.8931378126144409
1771628587972409300,9.154409423828126,2.816739082336426,0.022958219051361084,0.17984578013420105
1771628587991208200,9.173208251953126,1.8017606735229492,-0.07520639896392822,-0.6590354442596436
1771628588010007300,9.19200732421875,0.27490711212158203,-0.09652572870254517,-1.0109519958496094
1771628588028806700,9.210806640625,-0.8514165878295898,-0.35075533390045166,-0.5552589893341064
1771628588047605500,9.22960546875,-0.5924396514892578,-0.7709358930587769,-0.04598018527030945
1771628588066404900,9.24840478515625,0.17094039916992188,-1.0244094133377075,0.22980625927448273
1771628588085203700,9.26720361328125,-0.24435997009277344,-0.8821312785148621,0.4809713363647461
1771628588104003000,9.286003173828124,-1.2621479034423828,-0.3596160411834717,0.7434507012367249
1771628588122802200,9.30480224609375,-2.285228729248047,0.1450340747833252,0.6199221611022949
1771628588141601300,9.323601318359374,-3.0721969604492188,0.33679473400115967,0.6509476900100708
1771628588160400400,9.342400390625,-1.7152128219604492,0.23864376544952393,1.0239914655685425
1771628588179199200,9.36119921875,-0.08667182922363281,-0.06074810028076172,1.3173446655273438
1771628588197998600,9.37999853515625,0.9825353622436523,-0.47310543060302734,1.2715765237808228
1771628588216797700,9.398797607421875,1.774001121520996,-0.6980103850364685,0.92826247215271
1771628588235596800,9.4175966796875,1.1673994064331055,-0.6034237146377563,0.5218438506126404
1771628588254396000,9.43639599609375,-0.44184017181396484,-0.20655900239944458,0.07142144441604614
1771628588273195000,9.455195068359375,-1.2595577239990234,0.21905481815338135,-0.14141394197940826
1771628588291994000,9.473994140625,-1.5931930541992188,0.42681020498275757,-0.16986238956451416
1771628588310793200,9.492793212890625,-1.3484907150268555,0.5304733514785767,0.0006961822509765625
1771628588329592300,9.51159228515625,-0.6910676956176758,0.514698326587677,0.10532143712043762
1771628588348391400,9.530391357421875,-0.28369140625,0.5703986287117004,0.0036541223526000977
1771628588367190500,9.5491904296875,0.13297080993652344,0.6299026608467102,-0.012890875339508057
1771628588385989600,9.56798974609375,0.22402572631835938,0.648568332195282,-0.07956087589263916
1771628588404788700,9.586788818359375,0.40104007720947266,0.6466838717460632,-0.007599920034408569
1771628588423587800,9.605587890625,0.3452005386352539,0.6774004101753235,-0.06716775894165039
1771628588451786500,9.633786376953125,0.04303455352783203,0.493402898311615,-0.2668265998363495
1771628588470585600,9.652585693359375,0.6223545074462891,0.23333406448364258,-0.4005960524082184
1771628588489384700,9.671384765625,1.1665639877319336,0.005752086639404297,-0.4909507930278778
1771628588508183800,9.690183837890626,0.8302841186523438,-0.010681867599487305,-0.10809507966041565
1771628588526983000,9.70898291015625,-0.04390430450439453,0.12131953239440918,0.37529757618904114
1771628588545782000,9.727781982421876,-0.6469488143920898,0.4857308268547058,0.6310075521469116
1771628588564581000,9.7465810546875,-0.8218507766723633,0.9029413461685181,0.31175440549850464
1771628588583380200,9.765380126953126,0.46436595916748047,0.8893893361091614,0.16666865348815918
1771628588602179300,9.784179443359376,1.715764045715332,0.44621849060058594,0.2506055533885956
1771628588620978400,9.802978515625,1.8281307220458984,0.1705416440963745,0.28829264640808105
1771628588639777500,9.821777587890624,0.6290035247802734,0.2927875518798828,0.4140993654727936
1771628588658576600,9.84057666015625,-0.6173868179321289,0.3001868724822998,0.2732904851436615
1771628588677375700,9.859375732421874,-0.6363325119018555,-0.0702817440032959,0.2971751093864441
1771628588696174800,9.8781748046875,0.10359668731689453,-0.8815306425094604,0.46657243371009827
1771628588714974000,9.896973876953124,0.7301177978515625,-1.5826518535614014,0.33702927827835083
1771628588733773000,9.91577294921875,0.2936820983886719,-1.8087010383605957,-0.054066240787506104
1771628588761971700,9.9439716796875,-1.1099328994750977,-1.3617486953735352,-0.9824408292770386
1771628588780770800,9.962770751953125,-1.1768798828125,-0.9018383026123047,-0.568307638168335
1771628588799570000,9.98156982421875,-0.8949413299560547,-0.6954817771911621,-0.20567885041236877
1771628588827768600,10.0097685546875,0.1597461700439453,-0.41097116470336914,0.15561392903327942
1771628588846567700,10.028567626953125,1.1373319625854492,-0.4337208867073059,0.21215006709098816
1771628588865366800,10.04736669921875,1.6735992431640625,-0.47959545254707336,0.3895781636238098
1771628588884166000,10.066165771484375,1.1394987106323242,-0.3807961940765381,0.2858007550239563
1771628588902965000,10.084965087890625,-0.18675518035888672,-0.18168270587921143,-0.13494998216629028
1771628588921764000,10.10376416015625,-0.9140968322753906,-0.05539870262145996,-0.42315375804901123
1771628588940563200,10.122563232421875,-1.0927095413208008,-0.0724298357963562,-0.6182377338409424
1771628588959362300,10.1413623046875,-1.0876665115356445,-0.25178343057632446,-0.7570787072181702
1771628588978161400,10.160161376953125,-0.5701227188110352,-0.4423341751098633,-0.652612566947937
1771628588996960500,10.17896044921875,-0.6421022415161133,-0.3908079266548157,-0.7081589102745056
1771628589015759600,10.197759521484375,-1.041717529296875,-0.21769654750823975,-0.8206449747085571
1771628589034558700,10.216558837890625,-1.0044879913330078,-0.13048017024993896,-0.8177571296691895
1771628589053357800,10.23535791015625,-0.1680622100830078,-0.15611380338668823,-0.5815234184265137
1771628589072157000,10.254156982421875,0.24238300323486328,-0.1841389536857605,-0.257345974445343
1771628589090956000,10.2729560546875,0.44432830810546875,-0.1197049617767334,-0.19320780038833618
1771628589109755100,10.291755126953126,0.6268043518066406,-0.05364406108856201,-0.4563072621822357
1771628589128554200,10.31055419921875,0.7542829513549805,-0.027507364749908447,-0.7953242659568787
1771628589147353300,10.329353271484376,0.748957633972168,-0.02655935287475586,-0.5419639945030212
1771628589166152400,10.34815234375,0.09877967834472656,-0.08516103029251099,-0.39979374408721924
1771628589184951600,10.36695166015625,-0.25730037689208984,-0.11957979202270508,-0.25462424755096436
1771628589203750700,10.385750732421876,-0.18143367767333984,0.044786691665649414,-0.07219389081001282
1771628589222549800,10.4045498046875,-0.44576358795166016,0.483428955078125,-0.06594228744506836
1771628589241348900,10.423348876953124,-0.5256004333496094,0.7119842767715454,-0.08965107798576355
1771628589260148200,10.442148193359374,0.45362281799316406,0.4935183525085449,0.01788201928138733
1771628589278947000,10.460947021484374,0.9679231643676758,0.02155005931854248,-0.13224941492080688
1771628589297746200,10.47974609375,1.5617742538452148,-0.42503130435943604,-0.12233264744281769
1771628589316545300,10.498545166015624,0.8523950576782227,-0.6293559074401855,0.26448559761047363
1771628589335344400,10.517344482421874,-0.46936988830566406,-0.7969801425933838,0.5207342505455017
1771628589354143700,10.536143798828125,-0.3770589828491211,-0.631969690322876,0.7320111989974976
1771628589372942600,10.554942626953125,-0.526820182800293,-0.5858708620071411,1.2382875680923462
1771628589391741700,10.57374169921875,-1.1012372970581055,-0.25447356700897217,1.5918452739715576
1771628589410540800,10.592540771484375,-1.1510534286499023,0.14318549633026123,1.418269395828247
1771628589429340000,10.61133984375,-0.37535953521728516,0.2090846300125122,0.7545124292373657
1771628589448139300,10.63013916015625,0.3886241912841797,0.06973278522491455,0.022702455520629883
1771628589466938000,10.648938232421875,1.0848016738891602,-0.039459228515625,-0.3872208595275879
1771628589485737500,10.667737548828125,1.870762825012207,-0.19179898500442505,-0.46034032106399536
1771628589504536300,10.686536376953125,2.3116188049316406,-0.16204708814620972,-0.3962344825267792
1771628589523335400,10.70533544921875,0.9706764221191406,0.18309712409973145,-0.38772454857826233
1771628589542134800,10.724134765625,-0.8109340667724609,0.6129968762397766,-0.5708171129226685
1771628589560933600,10.74293359375,-1.658827781677246,0.7257156372070312,-0.4339516758918762
1771628589579733000,10.76173291015625,-1.8868279457092285,0.5944477319717407,-0.13404297828674316
1771628589598531800,10.78053173828125,-1.5387639999389648,0.40916192531585693,0.1814117133617401
1771628589617331200,10.799331298828125,-1.169938087463379,0.3674497604370117,0.39166709780693054
1771628589636130300,10.81813037109375,-0.8466758728027344,0.36080384254455566,0.5168596506118774
1771628589654929200,10.83692919921875,0.48685169219970703,0.13922953605651855,0.644526481628418
1771628589673728500,10.855728515625,0.8409204483032227,0.17303884029388428,0.590427041053772
1771628589692527400,10.87452734375,0.11570453643798828,0.7767311334609985,0.3734382390975952
1771628589711326700,10.89332666015625,-0.5892086029052734,0.9218851327896118,0.03475812077522278
1771628589730125800,10.912125732421876,0.0193328857421875,0.8573127388954163,0.22284460067749023
1771628589748924700,10.930924560546876,1.1377143859863281,0.46705329418182373,0.12917667627334595
1771628589767724000,10.94972412109375,1.2614479064941406,0.11568009853363037,0.11474156379699707
1771628589786523000,10.96852294921875,0.76031494140625,0.040438950061798096,0.19061580300331116
1771628589805322200,10.987322265625,-0.2710447311401367,0.18916839361190796,0.30708014965057373
1771628589824121300,11.006121337890624,-0.9999523162841797,0.3400392532348633,0.2418101727962494
1771628589842920200,11.024920166015624,-0.9229288101196289,0.4309046268463135,-0.27534782886505127
1771628589861719600,11.043719482421874,-1.0547761917114258,0.37186193466186523,-0.6405302286148071
1771628589880518400,11.062518310546874,-0.31658267974853516,0.21077001094818115,-0.9359720945358276
1771628589899317800,11.08131787109375,1.265955924987793,0.17173457145690918,-0.4331757426261902
1771628589918116900,11.100116943359374,1.611907958984375,0.41398584842681885,0.06826624274253845
1771628589936916000,11.118916015625,1.4322938919067383,0.3897419571876526,0.6877431869506836
1771628589955715000,11.137715087890625,1.8267621994018555,-0.2570416331291199,1.220531702041626
1771628589974514000,11.156513916015625,2.2451705932617188,-0.9120240211486816,1.0732786655426025
1771628589993313300,11.175313232421875,1.8897037506103516,-1.32744300365448,0.4682575762271881
1771628590012112400,11.1941123046875,0.8091182708740234,-1.3188300132751465,-0.23857912421226501
1771628590030911500,11.212911376953125,-0.3223609924316406,-1.0203683376312256,-0.6815052032470703
1771628590049710600,11.231710693359375,-0.9979400634765625,-0.7435282468795776,-0.38122275471687317
1771628590068509400,11.250509521484375,-1.2242555618286133,-0.6881360411643982,-0.04400657117366791
1771628590087308800,11.269308837890625,-0.7926950454711914,-0.5734835863113403,0.28762292861938477
1771628590106108000,11.28810791015625,-0.8240442276000977,-0.5237231254577637,0.3201825022697449
1771628590124907000,11.306906982421875,-0.9735574722290039,-0.6194095611572266,-0.08251309394836426
1771628590143706000,11.3257060546875,-0.7989740371704102,-0.6998599767684937,-0.3359476327896118
1771628590162505000,11.3445048828125,-0.693115234375,-0.5927817821502686,-0.311940997838974
1771628590181304300,11.36330419921875,-0.9679470062255859,-0.33169639110565186,-0.4003918170928955
1771628590200103400,11.382103515625,-1.3578643798828125,-0.06429076194763184,-0.41997453570365906
1771628590218902500,11.400902587890625,-1.1832656860351562,0.05206596851348877,-0.6235007643699646
1771628590237701600,11.41970166015625,-0.3258991241455078,0.06784355640411377,-0.7818578481674194
1771628590256500500,11.43850048828125,0.651127815246582,-0.0397912859916687,-0.5249124765396118
1771628590275299800,11.4572998046875,1.0244474411010742,-0.11791884899139404,-0.31706270575523376
1771628590294099000,11.476098876953126,0.4727487564086914,0.02412879467010498,-0.2869354784488678
1771628590312898000,11.49489794921875,-0.3044290542602539,0.25392091274261475,-0.4127551019191742
1771628590341096700,11.5230966796875,-0.3094673156738281,0.2965098023414612,-0.43640100955963135
1771628590359895800,11.541895751953126,-0.08495807647705078,0.1224927306175232,-0.49530112743377686
1771628590378695000,11.56069482421875,0.11363506317138672,0.027831554412841797,-0.3350512981414795
1771628590397494000,11.579493896484376,0.3868122100830078,-0.00000858306884765625,-0.19350767135620117
1771628590416293000,11.598293212890624,0.5163030624389648,-0.012977123260498047,-0.2622428834438324
1771628590435092200,11.61709228515625,0.10684394836425781,-0.08734387159347534,-0.4093393385410309
1771628590453891300,11.635891357421874,-0.18399810791015625,-0.17654794454574585,-0.4299052357673645
1771628590472690400,11.6546904296875,-0.272735595703125,-0.15105164051055908,-0.3537631034851074
1771628590491489500,11.673489501953124,0.3560972213745117,0.1631985306739807,-0.007701367139816284
1771628590510288600,11.69228857421875,0.786137580871582,0.4669914245605469,0.2767617404460907
1771628590529087700,11.711087646484375,0.3484525680541992,0.7601028084754944,0.3375256061553955
1771628590547886800,11.729886962890625,0.17002296447753906,0.6783002614974976,0.7558441162109375
1771628590566686000,11.74868603515625,1.318345069885254,0.2448028326034546,0.7397878766059875
1771628590585485000,11.767485107421875,0.7352457046508789,-0.1426248550415039,0.0162794291973114
1771628590604284200,11.7862841796875,-0.9502592086791992,-0.3851419687271118,-0.09942633658647537
1771628590623083300,11.805083251953125,-1.0129413604736328,-0.872411847114563,0.30481940507888794
1771628590641882400,11.82388232421875,0.3346281051635742,-1.4499411582946777,1.2922464609146118
1771628590660681500,11.842681396484375,1.0591659545898438,-1.6110665798187256,1.7459828853607178
1771628590679480600,11.86148046875,0.19998455047607422,-1.0732722282409668,1.6577273607254028
1771628590707679200,11.88967919921875,-1.8759679794311523,0.40464526414871216,0.8928821682929993
1771628590726478300,11.908478271484375,-1.603806495666504,0.837256133556366,0.5626604557037354
1771628590745277400,11.92727734375,-0.12163829803466797,0.5198792219161987,-0.027535587549209595
1771628590764076500,11.94607666015625,1.6822214126586914,-0.01386260986328125,-0.3622312545776367
1771628590782875600,11.964875732421875,2.7370080947875977,-0.3334994316101074,-0.5186600685119629
1771628590801674800,11.9836748046875,2.298076629638672,-0.20938709378242493,-0.45046406984329224
1771628590820473900,12.002473876953125,0.2564258575439453,0.1295642852783203,-0.37043407559394836
1771628590839273000,12.02127294921875,-1.1266965866088867,0.4145331382751465,-0.21190981566905975
1771628590858072000,12.040072021484375,-1.8917903900146484,0.517721951007843,-0.22643789649009705
1771628590876871200,12.05887109375,-1.7164640426635742,0.4146465063095093,-0.09962412714958191
1771628590895670300,12.077670166015626,-1.156458854675293,0.2510385513305664,-0.000015228986740112305
1771628590914469400,12.096469482421876,-0.9520120620727539,0.31934911012649536,0.13453605771064758
1771628590933268500,12.1152685546875,-1.118596076965332,0.49974119663238525,0.09414193034172058
1771628590961467100,12.143467041015626,-0.20682811737060547,0.47740638256073,0.06564989686012268
1771628590980266200,12.162266357421874,0.8315000534057617,0.45450299978256226,0.4037593603134155
1771628590999065300,12.1810654296875,1.1759099960327148,0.3551172614097595,0.5288995504379272
1771628591017864400,12.199864501953124,0.697291374206543,0.28961533308029175,0.485970675945282
1771628591036663600,12.21866357421875,0.14911270141601562,0.26605671644210815,0.05163532495498657
1771628591055462700,12.237462646484374,0.07869338989257812,0.3573138117790222,-0.03900253772735596
1771628591074261800,12.25626171875,-0.18258094787597656,0.44177496433258057,0.16869032382965088
1771628591093060900,12.275060791015624,-0.3918018341064453,0.4083085060119629,0.3813170790672302
1771628591111860000,12.29385986328125,-0.5591316223144531,0.4181320071220398,0.34861838817596436
1771628591130659000,12.3126591796875,-0.7389144897460938,0.6549535393714905,-0.11077070236206055
1771628591149458200,12.331458251953125,-0.137908935546875,0.5293482542037964,-0.6748920679092407
1771628591168257300,12.35025732421875,1.4718027114868164,-0.03649264574050903,-0.6395331025123596
1771628591187056400,12.369056396484375,2.9157896041870117,-0.3284982740879059,-0.3062675893306732
1771628591205855500,12.38785546875,2.5139284133911133,-0.08869296312332153,0.424033522605896
1771628591224654600,12.406654541015625,1.0789251327514648,0.3448324203491211,0.9358888864517212
1771628591243453700,12.42545361328125,0.45256614685058594,0.15808993577957153,1.3032417297363281
1771628591262252800,12.444252685546875,0.7857198715209961,-0.5348924398422241,0.9223519563674927
1771628591281052000,12.463052001953125,1.2639274597167969,-1.0730838775634766,0.15241870284080505
1771628591299851000,12.48185107421875,0.7947492599487305,-1.2976359128952026,-0.16866526007652283
1771628591328049700,12.510049560546875,-1.4917173385620117,-1.2237759828567505,-0.29647010564804077
1771628591346848800,12.528848876953125,-2.1662378311157227,-1.0056320428848267,-0.487266480922699
1771628591365648000,12.54764794921875,-1.6157035827636719,-0.824504554271698,-0.738194465637207
1771628591384447000,12.566447021484375,-0.5069828033447266,-0.6493542194366455,-0.526938796043396
1771628591403246000,12.58524609375,-0.36338138580322266,-0.6118057370185852,-0.19710122048854828
1771628591422045200,12.604045166015625,0.0752706527709961,-0.5560632944107056,0.13461537659168243
1771628591440844300,12.62284423828125,0.37301063537597656,-0.39526891708374023,-0.07473975419998169
1771628591459643400,12.641643310546876,0.1748523712158203,-0.12940573692321777,-0.42091837525367737
1771628591478442500,12.6604423828125,-0.35273170471191406,0.12592339515686035,-0.25261425971984863
1771628591497241600,12.67924169921875,-0.6345853805541992,0.16448289155960083,-0.135576069355011
1771628591516040700,12.698040771484376,-0.4943885803222656,-0.017845213413238525,-0.1708742380142212
1771628591534839800,12.71683984375,-0.31409549713134766,-0.21107137203216553,-0.4052060842514038
1771628591553639000,12.735638916015626,-0.5953807830810547,-0.31391000747680664,-0.6790039539337158
1771628591572438000,12.75443798828125,-0.7688875198364258,-0.2235310673713684,-0.7853655219078064
1771628591591237000,12.773237060546874,-0.9905891418457031,-0.04863661527633667,-0.8778458833694458
1771628591610036200,12.7920361328125,-1.1921100616455078,0.1738269329071045,-0.993670642375946
1771628591628835300,12.81083544921875,-0.7385749816894531,0.25982099771499634,-0.7150640487670898
1771628591647634400,12.829634521484374,0.23200702667236328,0.07478338479995728,-0.567802906036377
1771628591666433500,12.84843359375,1.0091161727905273,-0.03690081834793091,-0.5351638197898865
1771628591685232600,12.867232666015624,1.0877161026000977,-0.020556330680847168,-0.5184851884841919
1771628591704031700,12.88603173828125,0.7211227416992188,-0.09353375434875488,-0.2602597773075104
1771628591722830800,12.904830810546875,0.20602703094482422,-0.27018260955810547,-0.21534103155136108
1771628591741630000,12.9236298828125,0.014250755310058594,-0.45647189021110535,0.04912467300891876
1771628591760429000,12.942428955078125,0.8408384323120117,-0.42876410484313965,0.28665560483932495
1771628591779228200,12.961228271484375,1.3314876556396484,0.17601126432418823,0.5145434737205505
1771628591798027300,12.98002734375,0.8326835632324219,0.6973077654838562,0.5914055705070496
1771628591816826400,12.998826416015625,0.94207763671875,0.6192523837089539,0.5701816082000732
1771628591845025000,13.02702490234375,1.1348400115966797,0.11303490400314331,-0.21799546480178833
1771628591863824100,13.04582421875,0.016051292419433594,-0.18402314186096191,-0.7086589932441711
1771628591882623200,13.064623291015625,-0.7167901992797852,-0.4925793409347534,-0.39311519265174866
1771628591901422300,13.08342236328125,-1.0876178741455078,-0.7554362416267395,0.25170689821243286
1771628591920221400,13.102221435546875,-0.8258514404296875,-0.9309355020523071,0.560648500919342
1771628591939020500,13.1210205078125,-0.3392601013183594,-0.9053868055343628,0.9644784331321716
1771628591957819600,13.139819580078125,-0.3897218704223633,-0.5813672542572021,0.6738409996032715
1771628591976618800,13.15861865234375,-0.8433427810668945,-0.10104101896286011,0.3046274781227112
1771628591995417900,13.17741796875,-0.4590902328491211,0.3204718232154846,0.1403629332780838
1771628592014217000,13.196217041015625,0.2793302536010742,0.5381696820259094,0.19572792947292328
1771628592033016000,13.21501611328125,0.46950244903564453,0.5175337195396423,0.2447814792394638
1771628592051815200,13.233815185546876,0.8447418212890625,0.2228938341140747,0.09249980747699738
1771628592070614300,13.2526142578125,1.5004377365112305,-0.1775684356689453,-0.32998228073120117
1771628592089413400,13.271413330078126,1.1969585418701172,-0.3729541003704071,-0.6045312881469727
1771628592108212500,13.29021240234375,-0.1960620880126953,-0.2338855266571045,-0.508582353591919
1771628592127011600,13.309011474609376,-1.387777328491211,-0.011383414268493652,-0.3402920961380005
1771628592145810700,13.327810791015626,-1.9208765029907227,0.17132705450057983,0.0003176182508468628
1771628592164609800,13.34660986328125,-1.8596715927124023,0.25403451919555664,0.014805242419242859
1771628592183409000,13.365408935546874,-1.2349920272827148,0.3349217176437378,0.018008142709732056
1771628592202208000,13.3842080078125,-0.9008779525756836,0.47497332096099854,-0.03232327103614807
1771628592221007000,13.403007080078124,-0.6353302001953125,0.6354520320892334,0.05075325071811676
1771628592239806200,13.42180615234375,-0.24378395080566406,0.7597895860671997,0.3964666724205017
1771628592258605300,13.440605224609374,0.5408658981323242,0.7502076029777527,0.7895926237106323
1771628592277404400,13.459404296875,1.0305404663085938,0.7263015508651733,0.8500742316246033
1771628592296203500,13.47820361328125,0.8646793365478516,0.6326345205307007,0.7149375677108765
1771628592315002600,13.497002685546875,0.6447315216064453,0.6555665731430054,0.5077926516532898
1771628592333801700,13.5158017578125,0.2296466827392578,0.5787757039070129,0.08800923824310303
1771628592352600800,13.534600830078125,0.11231708526611328,0.28779518604278564,-0.10688149929046631
1771628592371400000,13.55339990234375,0.02338886260986328,0.08102202415466309,-0.1531515270471573
1771628592390199000,13.572198974609375,-0.0885610580444336,0.16476470232009888,-0.1783619523048401
1771628592408998100,13.590998046875,-0.5030374526977539,0.3817024230957031,-0.07055681943893433
1771628592427797200,13.60979736328125,-0.5694189071655273,0.5585759878158569,-0.10556603223085403
1771628592446596400,13.628596435546875,-0.09326934814453125,0.4490352272987366,-0.39134639501571655
1771628592465395500,13.6473955078125,0.989201545715332,0.11906856298446655,-0.7153407335281372
1771628592484194600,13.666194580078125,2.025003433227539,0.017242372035980225,-0.4297294020652771
1771628592502993700,13.68499365234375,2.3474063873291016,0.14658480882644653,0.02345649152994156
1771628592521792800,13.703792724609375,1.5006341934204102,0.2548111081123352,0.27971190214157104
1771628592540591900,13.722591796875,0.7897939682006836,0.14996111392974854,0.49960392713546753
1771628592559391000,13.741390869140625,1.1381568908691406,-0.1252152919769287,0.44877898693084717
1771628592578190000,13.760190185546875,1.5018301010131836,-0.5246157050132751,0.10077311098575592
1771628592596989200,13.7789892578125,0.8540353775024414,-0.7206785082817078,0.07669699192047119
1771628592615788300,13.797788330078125,-0.7695589065551758,-0.9095735549926758,-0.036892205476760864
1771628592634587400,13.81658740234375,-1.661046028137207,-1.0276672840118408,-0.30501019954681396
1771628592653386500,13.835386474609376,-1.6059598922729492,-1.2686444520950317,-0.22996652126312256
1771628592672185600,13.854185546875,-0.946990966796875,-1.4252865314483643,0.05703763663768768
1771628592690984700,13.872984619140626,-0.9632186889648438,-1.1566276550292969,0.3099111318588257
1771628592709783800,13.89178369140625,-1.7319536209106445,-0.6488605737686157,0.43509024381637573
1771628592728583000,13.9105830078125,-1.5695524215698242,-0.37973320484161377,0.6015264987945557
1771628592747382000,13.929382080078126,-0.32225513458251953,-0.469426691532135,0.6303341388702393
1771628592766181000,13.94818115234375,1.0047035217285156,-0.6588143706321716,0.23673316836357117
1771628592784980200,13.966980224609374,1.3388738632202148,-0.6196843385696411,-0.11191041022539139
1771628592803779300,13.985779296875,0.27792930603027344,-0.2765846252441406,-0.180882066488266
1771628592822578400,14.004578369140624,-0.6936607360839844,0.009802579879760742,-0.1804349273443222
1771628592850777000,14.032777099609374,-1.0729761123657227,0.10255241394042969,-0.5247496366500854
1771628592869576200,14.051576171875,-0.6298675537109375,-0.06260186433792114,-0.9809103012084961
1771628592888375300,14.070375244140624,-0.2302684783935547,-0.21906423568725586,-0.9959592819213867
1771628592907174400,14.08917431640625,-0.5675888061523438,-0.1341003179550171,-0.6287853121757507
1771628592925973500,14.107973388671875,-0.8061008453369141,0.05688351392745972,-0.2790675163269043
1771628592944772600,14.126772705078125,-0.37314605712890625,0.18333643674850464,-0.14573761820793152
1771628592963571700,14.14557177734375,-0.048478126525878906,0.04357635974884033,-0.12918753921985626
1771628592982370800,14.164370849609375,0.03881549835205078,0.04055345058441162,-0.1124081015586853
1771628593001170000,14.183169921875,0.21791648864746094,0.09969568252563477,-0.1501443237066269
1771628593019969000,14.201968994140625,0.32302284240722656,0.10560339689254761,-0.17703191936016083
1771628593038768000,14.22076806640625,0.1063528060913086,0.06854194402694702,-0.46372178196907043
1771628593057567200,14.239567138671875,0.06589794158935547,0.09613043069839478,-0.8408761024475098
1771628593076366300,14.258366455078125,0.2650413513183594,0.2192901372909546,-0.4435114562511444
1771628593095165400,14.27716552734375,0.6129827499389648,0.548541247844696,0.06532186269760132
1771628593113964500,14.295964599609375,0.8063955307006836,0.7164063453674316,0.20924347639083862
1771628593132763600,14.314763671875,1.2954912185668945,0.44862639904022217,0.3235680162906647
1771628593151562800,14.333562744140625,2.2382259368896484,0.052432894706726074,0.27460333704948425
1771628593170361900,14.35236181640625,1.0087919235229492,0.061468422412872314,-0.15224522352218628
1771628593189161000,14.371160888671875,-0.655364990234375,0.10563141107559204,-0.5190949440002441
1771628593207960000,14.3899599609375,-0.9453058242797852,-0.26713263988494873,-0.6330362558364868
1771628593226759200,14.40875927734375,0.06221961975097656,-0.787017822265625,-0.606689989566803
1771628593245558300,14.427558349609376,0.6232309341430664,-0.9658628106117249,-0.25304949283599854
1771628593264357400,14.446357421875,0.3274059295654297,-0.6793785691261292,0.270260214805603
1771628593283156500,14.465156494140626,-0.12538528442382812,-0.2875269055366516,0.912733793258667
1771628593301955600,14.48395556640625,-0.9619522094726562,0.08581244945526123,1.209676742553711
1771628593320754700,14.502754638671876,-1.440725326538086,0.27922260761260986,1.0417540073394775
1771628593339553800,14.5215537109375,-0.6434011459350586,0.2630334496498108,1.0495257377624512
1771628593358353000,14.540352783203126,-0.29195404052734375,0.28103840351104736,1.0034806728363037
1771628593377152000,14.559152099609374,-0.24810791015625,0.18587934970855713,0.7139267921447754
1771628593395951000,14.577951171875,0.22587203979492188,-0.1826547384262085,0.6958047151565552
1771628593414750200,14.596750244140624,1.3586921691894531,-0.5830717086791992,0.5579473972320557
1771628593433549300,14.61554931640625,1.6840200424194336,-0.6317644119262695,0.27760350704193115
1771628593452348400,14.634348388671874,-0.18659687042236328,-0.2402057647705078,0.1516639143228531
1771628593471147500,14.6531474609375,-1.3568115234375,0.20234298706054688,0.05665096640586853
1771628593489946600,14.671946533203124,-1.8418169021606445,0.4287818670272827,0.042671769857406616
1771628593508745700,14.690745849609375,-1.4239120483398438,0.41213011741638184,-0.29988154768943787
1771628593527544800,14.709544921875,-0.33526611328125,0.2846091389656067,-0.4253096878528595
1771628593546344000,14.728343994140625,0.3482341766357422,0.4022229313850403,-0.34239527583122253
1771628593565143000,14.74714306640625,0.31182003021240234,0.5230198502540588,-0.19478362798690796
1771628593583942100,14.765942138671875,0.07262802124023438,0.5153185725212097,-0.09081295877695084
1771628593602741200,14.7847412109375,-0.1612396240234375,0.41387683153152466,-0.11029760539531708
1771628593621540400,14.803540283203125,-0.5652904510498047,0.35793352127075195,-0.13483984768390656
1771628593640339500,14.82233935546875,-0.7888936996459961,0.33745133876800537,-0.10239745676517487
1771628593659138600,14.841138671875,-0.7111625671386719,0.3065308928489685,-0.08842071890830994
1771628593677937700,14.859937744140625,-0.08007049560546875,0.13566231727600098,-0.1502198874950409
1771628593696736800,14.87873681640625,0.9202346801757812,-0.001644730567932129,0.09863342344760895
1771628593724935200,14.90693505859375,0.7973260879516602,0.3927055597305298,0.3709924817085266
1771628593743734500,14.925734619140625,0.22371673583984375,0.6861253976821899,0.2101440578699112
1771628593762533600,14.94453369140625,0.3064422607421875,0.8045876026153564,-0.3005927801132202
1771628593781332500,14.96333251953125,0.42479801177978516,0.6946786046028137,-0.823464035987854
1771628593800131800,14.9821318359375,1.015641212463379,0.3553604483604431,-0.9557605385780334
1771628593818930700,15.0009306640625,2.020627021789551,0.17987406253814697,-0.7170972228050232
1771628593837730000,15.01972998046875,1.2287406921386719,0.3562537431716919,-0.14472800493240356
1771628593856529200,15.038529052734376,-0.3903779983520508,0.5794082283973694,0.7212414741516113
1771628593875328000,15.057327880859376,-1.2805376052856445,0.35729342699050903,1.2611209154129028
1771628593894127400,15.07612744140625,-0.3338813781738281,-0.32516396045684814,0.9275127053260803
1771628593912926200,15.09492626953125,0.7056818008422852,-1.2529354095458984,0.6912307739257812
1771628593931725600,15.1137255859375,1.1552696228027344,-1.7983288764953613,0.5894763469696045
1771628593950524700,15.132524658203126,0.34563636779785156,-1.6272286176681519,0.4398699700832367
1771628593969323500,15.151323486328126,-0.4244375228881836,-1.0651302337646484,-0.019275497645139694
1771628593988123000,15.170122802734374,-0.7722043991088867,-0.46046894788742065,-0.06571882963180542
1771628594006921700,15.188921630859374,-0.5805301666259766,-0.21474969387054443,-0.1328728049993515
1771628594025720800,15.207720947265624,0.03631782531738281,-0.2747020423412323,-0.5172044634819031
1771628594044520200,15.226520263671874,0.14560413360595703,-0.375680148601532,-0.8637601137161255
1771628594063319000,15.245319091796874,0.08649349212646484,-0.470223605632782,-0.5003368854522705
1771628594082118400,15.264118408203124,0.3934497833251953,-0.509835422039032,-0.27377957105636597
1771628594100917200,15.282917236328124,0.4183235168457031,-0.45101791620254517,-0.2817455232143402
1771628594119716400,15.30171630859375,0.07697200775146484,-0.2236509621143341,-0.07438865303993225
1771628594138515700,15.320515625,-0.61627197265625,0.09599238634109497,0.09313935041427612
1771628594157314600,15.339314453125,-0.8329133987426758,0.2505817413330078,0.09951409697532654
1771628594176113700,15.35811376953125,-0.682957649230957,0.24236029386520386,-0.10633862018585205
1771628594204312600,15.3863125,-0.44788360595703125,-0.07933443784713745,-0.2735764980316162
1771628594223111400,15.405111328125,-0.15716266632080078,-0.21690547466278076,-0.27337613701820374
1771628594241910500,15.42391064453125,-0.13795948028564453,-0.2047356367111206,-0.5375763773918152
1771628594260710000,15.4427099609375,-0.5656938552856445,-0.008986473083496094,-0.8078747987747192
1771628594279508700,15.4615087890625,-0.8883533477783203,0.2584983706474304,-0.8095085620880127
1771628594298307800,15.480307861328125,-0.8743410110473633,0.3349199891090393,-0.6861170530319214
1771628594317107000,15.49910693359375,-0.14717960357666016,0.21614974737167358,-0.4581124484539032
1771628594335906000,15.517906005859375,0.49590015411376953,0.14448028802871704,-0.540250837802887
1771628594364104700,15.546104736328125,0.02576923370361328,0.142347514629364,-0.6069233417510986
1771628594382903800,15.56490380859375,-0.21017742156982422,0.06030803918838501,-0.6280397772789001
1771628594401703000,15.583702880859375,-0.2312641143798828,-0.13851529359817505,-0.5669960379600525
1771628594420502000,15.602501953125,0.4181671142578125,-0.14877009391784668,-0.3647611141204834
1771628594439301000,15.621301025390625,1.1865873336791992,0.15042650699615479,-0.005422830581665039
1771628594458100200,15.640100341796876,0.7939767837524414,0.5014476180076599,0.24973386526107788
1771628594476899300,15.6588994140625,0.6188621520996094,0.5103151202201843,0.46785274147987366
1771628594495698400,15.677698486328126,1.6685733795166016,0.3206987977027893,0.29682886600494385
1771628594514497500,15.69649755859375,1.9888439178466797,-0.06507843732833862,-0.2624000608921051
1771628594533296600,15.715296630859376,0.7535028457641602,-0.3562561273574829,-0.4745301902294159
1771628594552095700,15.734095703125,-0.4520759582519531,-0.583401083946228,-0.28261178731918335
1771628594570894800,15.752894775390626,-0.35874176025390625,-0.7282255291938782,-0.021535813808441162
1771628594589694000,15.77169384765625,0.1699047088623047,-0.8121793866157532,0.018839120864868164
1771628594608493000,15.7904931640625,0.27976131439208984,-0.5463821291923523,0.12061572074890137
1771628594627292200,15.809292236328124,-0.801640510559082,0.04048699140548706,0.24850665032863617
1771628594646091300,15.82809130859375,-2.0850396156311035,0.6067491173744202,0.7031236886978149
1771628594664890400,15.846890380859374,-1.4569272994995117,0.7345672249794006,0.8407689332962036
1771628594683689500,15.865689453125,0.19752025604248047,0.43406248092651367,1.004828691482544
1771628594702488600,15.884488525390625,1.3389873504638672,0.09340757131576538,0.6801246404647827
1771628594721287700,15.90328759765625,0.6554679870605469,-0.04150855541229248,0.39818158745765686
1771628594740086800,15.922086669921875,-0.31707286834716797,-0.15084397792816162,-0.02374662458896637
1771628594758886000,15.940885986328125,-0.33177757263183594,-0.3812479078769684,-0.03986242413520813
1771628594777685000,15.95968505859375,-0.2634906768798828,-0.560417890548706,0.34869328141212463
1771628594796484000,15.978484130859375,-0.949397087097168,-0.5005450248718262,0.2658364176750183
1771628594815283200,15.997283203125,-1.6132497787475586,-0.13969862461090088,0.3602413535118103
1771628594834082300,16.016082275390627,-1.8774890899658203,0.3306376338005066,0.2885814309120178
1771628594862281000,16.044281005859375,-1.182112693786621,0.5625903010368347,0.36980292201042175
1771628594881080000,16.063080078125,-0.08503437042236328,0.5413714647293091,0.26998642086982727
1771628594899879200,16.081879150390623,0.5355005264282227,0.5004679560661316,0.07780632376670837
1771628594918678300,16.10067822265625,0.9253044128417969,0.43941426277160645,0.10371062159538269
1771628594946877000,16.128876953125,0.3379220962524414,0.42134708166122437,0.05608519911766052
1771628594965676000,16.147676025390624,-0.2852964401245117,0.4838528633117676,-0.10911008715629578
1771628594984475100,16.16647509765625,-0.5989675521850586,0.6162688136100769,-0.2851203382015228
1771628595003274200,16.185274169921875,-0.9891719818115234,0.6932855844497681,-0.2609042823314667
1771628595022073300,16.2040732421875,-0.9306468963623047,0.5500624179840088,-0.18655189871788025
1771628595040872400,16.22287255859375,-0.0639810562133789,0.3597109913825989,-0.10524943470954895
1771628595059671600,16.241671630859376,0.8642139434814453,0.30755263566970825,0.00911739468574524
1771628595078470700,16.260470703125,0.9354543685913086,0.39080488681793213,0.006662428379058838
1771628595097269800,16.279269775390624,0.31212711334228516,0.49584585428237915,-0.3213347792625427
1771628595116068900,16.29806884765625,-0.10146522521972656,0.619004487991333,-0.5891117453575134
1771628595134868000,16.316867919921876,0.16000652313232422,0.5324316024780273,-0.8734920024871826
1771628595153667000,16.3356669921875,0.9175930023193359,0.1968778371810913,-0.9930015206336975
1771628595181865700,16.36386572265625,1.255441665649414,-0.008580565452575684,-0.6473886966705322
1771628595200664800,16.382664794921876,0.4884958267211914,0.06631088256835938,-0.018839813768863678
1771628595219464000,16.4014638671875,0.4423503875732422,-0.07215124368667603,0.7255324721336365
1771628595238263000,16.420262939453124,1.1027278900146484,-0.4822670817375183,0.9612278938293457
1771628595257062100,16.439062255859376,1.9821653366088867,-0.9268854856491089,0.7346417903900146
1771628595275861000,16.457861083984376,1.3621110916137695,-1.2452155351638794,0.2953013777732849
1771628595294660400,16.476660400390625,-0.44094276428222656,-1.1412594318389893,-0.05013728141784668
1771628595313459500,16.49545947265625,-1.5933246612548828,-0.9344266653060913,-0.1813320517539978
1771628595332258300,16.51425830078125,-1.9168624877929688,-0.9029516577720642,-0.02543897181749344
1771628595351057700,16.5330576171875,-1.432887077331543,-0.8553406596183777,0.08226139843463898
1771628595369856800,16.551856689453125,-1.2416791915893555,-0.6728339195251465,0.0921148955821991
1771628595388655600,16.570655517578125,-1.0207958221435547,-0.5758674144744873,0.3219195604324341
1771628595407455000,16.589455078125,-0.11401081085205078,-0.584236741065979,0.5210607051849365
1771628595426253800,16.60825390625,0.5546121597290039,-0.5467304587364197,0.5368086099624634
1771628595445053000,16.627052978515625,0.3780527114868164,-0.2793659567832947,0.37650221586227417
1771628595463852300,16.645852294921873,-0.5771331787109375,0.12829726934432983,0.27876442670822144
1771628595482651100,16.664651123046873,-1.091531753540039,0.38771867752075195,0.3129860758781433
1771628595501450200,16.6834501953125,-0.847569465637207,0.17071837186813354,0.1485489308834076
1771628595520249300,16.702249267578125,-0.025983810424804688,-0.1630973219871521,0.061366260051727295
1771628595539048400,16.72104833984375,0.3785696029663086,-0.43153834342956543,-0.029171794652938843
1771628595557847800,16.739847900390625,0.10371971130371094,-0.44302767515182495,-0.4182109832763672
1771628595576646700,16.758646728515625,0.11064434051513672,-0.22598564624786377,-0.8337666988372803
1771628595595445800,16.77744580078125,-0.0515289306640625,-0.10544019937515259,-0.7068489789962769
1771628595614244900,16.796244873046874,-0.20172882080078125,0.03998851776123047,-0.7199224233627319
1771628595633044000,16.8150439453125,-0.6526365280151367,0.3208162188529968,-0.6738526821136475
1771628595651843000,16.833843017578126,-0.8469810485839844,0.455112099647522,-0.6502213478088379
1771628595670642200,16.85264208984375,-0.3715696334838867,0.3298412561416626,-0.6440620422363281
1771628595689441300,16.871441162109374,0.503239631652832,0.017306804656982422,-0.399736225605011
1771628595708240400,16.890240478515626,1.1332082748413086,-0.1255142092704773,-0.2530013918876648
1771628595727039500,16.90903955078125,0.9956121444702148,0.10369837284088135,-0.4110146164894104
1771628595745838600,16.927838623046874,0.056488990783691406,0.6971278786659241,-0.8392255306243896
1771628595764637700,16.9466376953125,-0.4283790588378906,1.020540714263916,-0.9450185298919678
1771628595783436800,16.965436767578126,0.21445846557617188,0.8684651851654053,-0.3972071707248688
1771628595802236000,16.98423583984375,1.5331602096557617,0.48257142305374146,0.2548815608024597
1771628595821035000,17.003034912109374,1.9350662231445312,0.06783384084701538,0.4354100823402405
1771628595839834000,17.021834228515626,0.9251890182495117,-0.49393025040626526,0.24732501804828644
1771628595858633200,17.04063330078125,0.181060791015625,-0.9268633723258972,0.42326226830482483
1771628595877432300,17.059432373046874,-0.3733034133911133,-1.1287624835968018,0.3801872730255127
1771628595896231400,17.0782314453125,-0.635869026184082,-1.0523356199264526,0.3447937071323395
1771628595915030500,17.097030517578126,-0.7389020919799805,-0.6893860101699829,0.47603747248649597
1771628595933829600,17.11582958984375,-1.027669906616211,-0.15803837776184082,0.8805481791496277
1771628595952628700,17.134628662109375,-1.3205852508544922,0.358418345451355,1.127999186515808
1771628595971427800,17.153427734375,-0.6070833206176758,0.5555217266082764,1.1515470743179321
1771628595990227000,17.17222705078125,-0.0057888031005859375,0.403758704662323,0.7942265868186951
1771628596018425600,17.200425537109375,1.067643165588379,-0.17602944374084473,-0.22393004596233368
1771628596037224700,17.219224609375,1.479832649230957,-0.3849330246448517,-0.2460467368364334
1771628596056023800,17.23802392578125,0.48145103454589844,-0.29708731174468994,-0.20609581470489502
1771628596074823000,17.256822998046875,-0.9220199584960938,-0.09559804201126099,-0.09421314299106598
1771628596093622000,17.2756220703125,-1.8902969360351562,0.10892617702484131,0.09701350331306458
1771628596121820700,17.303820556640623,-2.0172605514526367,0.3238811492919922,0.18605205416679382
1771628596140619800,17.322619873046875,-1.4277515411376953,0.3794558048248291,0.34558430314064026
1771628596159419000,17.3414189453125,-0.8228979110717773,0.3428947925567627,0.43895864486694336
1771628596178218000,17.360218017578124,-0.21039676666259766,0.2935601472854614,0.514238178730011
1771628596197016800,17.379016845703124,0.2710552215576172,0.33499521017074585,0.36910685896873474
1771628596215816200,17.397816162109375,0.40194225311279297,0.4989469051361084,0.018708229064941406
1771628596234615300,17.416615234375,0.14295291900634766,0.7043645977973938,-0.23247167468070984
1771628596253414100,17.4354140625,-0.2373342514038086,0.8035436272621155,-0.35026904940605164
1771628596272213500,17.454213623046876,-0.19161701202392578,0.7508958578109741,-0.5414851903915405
1771628596291012400,17.473012451171876,-0.07001590728759766,0.6085758209228516,-0.6765347719192505
1771628596309811500,17.4918115234375,0.28491687774658203,0.5565734505653381,-0.6434834003448486
1771628596328610800,17.51061083984375,0.4575319290161133,0.5035549402236938,-0.2985188663005829
1771628596347409700,17.52940966796875,0.36379051208496094,0.5551736354827881,0.323079913854599
1771628596375608300,17.5576083984375,-0.1373424530029297,0.6159112453460693,0.9449325799942017
1771628596394407400,17.576407470703124,0.673161506652832,0.6771326661109924,0.7527012825012207
1771628596413206500,17.59520654296875,1.338679313659668,0.4516310691833496,0.2637535333633423
1771628596432005600,17.614005615234376,1.7301998138427734,0.11650830507278442,-0.08482508361339569
1771628596450805000,17.632804931640624,1.5929059982299805,0.10486990213394165,-0.0792260617017746
1771628596469603800,17.651603759765624,0.8208589553833008,0.30273765325546265,0.21947845816612244
1771628596488403000,17.67040283203125,0.13992786407470703,0.2586473822593689,0.29406026005744934
1771628596507202000,17.6892021484375,0.31462764739990234,-0.30839473009109497,-0.03899339586496353
1771628596526001200,17.708001220703125,1.3846092224121094,-1.213372826576233,-0.31771761178970337
1771628596544800300,17.72680029296875,1.8367338180541992,-1.5595698356628418,0.20779046416282654
1771628596563599400,17.745599365234376,-0.07707405090332031,-1.2523678541183472,0.5798425078392029
1771628596582398500,17.7643984375,-2.080939292907715,-0.8015645742416382,0.23313438892364502
1771628596601197600,17.783197509765625,-2.8036279678344727,-0.4370197355747223,-0.07810433954000473
1771628596619996700,17.80199658203125,-2.168585777282715,-0.3598061800003052,0.05470319092273712
1771628596638795800,17.820795654296877,-1.5356864929199219,-0.43573135137557983,0.06920847296714783
1771628596657595000,17.839594970703125,-0.8701353073120117,-0.5873521566390991,0.1234111487865448
1771628596676394000,17.85839404296875,0.5142011642456055,-0.780402660369873,0.38763901591300964
1771628596695193000,17.877193115234373,2.000049591064453,-0.7542041540145874,0.5023539066314697
1771628596713992200,17.8959921875,1.491495132446289,-0.34932956099510193,0.334425687789917
1771628596732791300,17.914791259765625,-0.33878421783447266,0.09726834297180176,-0.12084390223026276
1771628596751590400,17.93359033203125,-0.9972734451293945,0.2129787802696228,-0.07506689429283142
1771628596770389500,17.952389404296873,-1.1486339569091797,0.09420394897460938,-0.26300936937332153
1771628596789188600,17.971188720703125,-1.324559211730957,-0.06366580724716187,-0.6403891444206238
1771628596807987700,17.98998779296875,-1.360640525817871,-0.16267997026443481,-0.8337881565093994
1771628596826786800,18.008786865234374,-0.9096088409423828,-0.19675731658935547,-0.8888464570045471
1771628596845586000,18.0275859375,-0.5089387893676758,-0.18482762575149536,-1.0456572771072388
1771628596864385000,18.046385009765626,-0.16891765594482422,-0.1328856348991394,-0.9474592208862305
1771628596883184000,18.06518408203125,0.2969236373901367,-0.09173274040222168,-0.7519941329956055
1771628596901983200,18.083983154296874,0.7668485641479492,-0.05053752660751343,-0.7599021196365356
1771628596920782300,18.1027822265625,0.8739023208618164,0.0030966997146606445,-0.9906720519065857
1771628596939581400,18.12158154296875,1.002676010131836,0.07359892129898071,-0.7750077247619629
1771628596958380500,18.140380615234374,0.7582769393920898,0.07962173223495483,-0.6532495617866516
1771628596977179600,18.1591796875,0.044625282287597656,-0.0009413361549377441,-0.7415573596954346
1771628596995978500,18.177978515625,-0.1260061264038086,0.02156221866607666,-0.5141473412513733
1771628597014777900,18.19677783203125,0.26393795013427734,0.2827145457267761,-0.09465646743774414
1771628597033577000,18.215576904296874,0.4324617385864258,0.5747427344322205,0.2759033441543579
1771628597052375800,18.234375732421874,0.7348175048828125,0.5518744587898254,0.653328537940979
1771628597071175200,18.253175048828126,1.3578405380249023,0.247267484664917,0.9002991914749146
1771628597089974000,18.27197412109375,1.1683263778686523,0.06626021862030029,0.5421271324157715
1771628597108773000,18.290773193359374,-0.14423179626464844,-0.13052129745483398,-0.007990628480911255
1771628597127572500,18.309572509765626,-0.31937313079833984,-0.35461926460266113,-0.18246221542358398
1771628597146371300,18.328371337890626,0.3817710876464844,-0.7632772326469421,0.1570986658334732
1771628597165170400,18.34717041015625,0.6990337371826172,-1.0892589092254639,0.5122560262680054
1771628597183969500,18.365969482421875,0.2328195571899414,-0.9111700057983398,0.8307636976242065
1771628597202768600,18.3847685546875,-1.2603607177734375,-0.40754586458206177,0.679639458656311
1771628597221567700,18.403567626953127,-2.155141830444336,0.19130021333694458,0.5187198519706726
1771628597240366800,18.422366943359375,-1.2425107955932617,0.5438383221626282,0.591270923614502
1771628597259166000,18.441166015625,-0.36347484588623047,0.4371865391731262,0.6217067837715149
1771628597277965000,18.459965087890627,0.5604829788208008,0.0878937840461731,0.2506472170352936
1771628597296764200,18.47876416015625,1.6004486083984375,-0.1765485405921936,0.09793674945831299
1771628597315563300,18.497563232421875,1.917893409729004,-0.30764085054397583,-0.041768431663513184
1771628597334362400,18.5163623046875,0.717808723449707,-0.20945411920547485,0.050098687410354614
1771628597353161500,18.535161376953123,-0.542515754699707,-0.01801466941833496,0.1808086484670639
1771628597371960600,18.553960693359375,-1.9439983367919922,0.07565808296203613,0.40404143929481506
1771628597390759700,18.572759765625,-2.506596565246582,0.1858062744140625,0.4918527901172638
1771628597409558800,18.591558837890624,-1.6955785751342773,0.16617369651794434,0.3975437581539154
1771628597428358000,18.61035791015625,-0.7297601699829102,0.18252032995224,0.547827959060669
1771628597447157000,18.629156982421875,-0.7651824951171875,0.2858712077140808,0.34343549609184265
1771628597465956000,18.6479560546875,-0.31769275665283203,0.3232588768005371,0.034866899251937866
1771628597484755200,18.666755126953124,0.4988222122192383,0.32036054134368896,-0.2460748702287674
1771628597503554300,18.68555419921875,0.5793704986572266,0.38014650344848633,-0.08418378233909607
1771628597522353400,18.704353515625,0.16322803497314453,0.392411470413208,-0.014172226190567017
1771628597541152500,18.723152587890624,-0.2747058868408203,0.3971315622329712,-0.08842690289020538
1771628597559951600,18.74195166015625,-0.6111688613891602,0.42506688833236694,-0.406339168548584
1771628597578750700,18.760750732421876,0.07959461212158203,0.46827203035354614,-0.41307759284973145
1771628597597549800,18.7795498046875,0.8635025024414062,0.403465211391449,-0.0774107277393341
1771628597616349000,18.798348876953124,0.7491378784179688,0.35003429651260376,0.20537981390953064
1771628597635148000,18.81714794921875,0.4859352111816406,0.3522832989692688,0.015110388398170471
1771628597653947100,18.835947021484376,0.45178699493408203,0.47754526138305664,-0.25328031182289124
1771628597672746200,18.854746337890624,-0.10076427459716797,0.5910645127296448,-0.5833477973937988
1771628597691545300,18.87354541015625,-0.09830951690673828,0.5106479525566101,-0.8370293378829956
1771628597710344400,18.892344482421876,0.9119243621826172,0.32986199855804443,-0.7903207540512085
1771628597729143600,18.9111435546875,1.5719366073608398,0.1477634310722351,-0.3802812397480011
1771628597747942700,18.929942626953125,1.2142343521118164,-0.030302703380584717,-0.08420055359601974
1771628597766741800,18.94874169921875,0.4365215301513672,-0.2939969003200531,-0.010572649538516998
1771628597785540900,18.967540771484376,0.2663726806640625,-0.7263330221176147,0.04083003103733063
1771628597804340000,18.986340087890625,0.6204299926757812,-1.1831321716308594,-0.08958106487989426
1771628597823138800,19.005138916015625,0.6985034942626953,-1.44061279296875,-0.09663845598697662
1771628597841938200,19.023938232421877,-0.4235210418701172,-1.4380725622177124,0.042399629950523376
1771628597860737300,19.0427373046875,-1.535527229309082,-1.036855697631836,0.11905572563409805
1771628597879536000,19.0615361328125,-1.4928054809570312,-0.44102388620376587,-0.36641427874565125
1771628597907734800,19.08973486328125,-0.6847505569458008,-0.3999033570289612,-0.3053169846534729
1771628597926534100,19.1085341796875,0.5630388259887695,-0.7518723607063293,0.17280325293540955
1771628597945333000,19.1273330078125,1.5045547485351562,-0.7479090690612793,0.19558143615722656
1771628597964132000,19.146132080078125,0.9678030014038086,-0.41307300329208374,0.14246779680252075
1771628597982931500,19.164931396484373,-0.22669601440429688,0.014513134956359863,-0.013070404529571533
1771628598001730300,19.183730224609373,-1.0137767791748047,0.24785995483398438,-0.034983474761247635
1771628598020529400,19.202529296875,-1.091954231262207,0.24848133325576782,-0.01565641164779663
1771628598039328500,19.22132861328125,-0.620701789855957,0.20195460319519043,0.05269228667020798
1771628598058127600,19.240127685546874,-0.18355083465576172,0.004088640213012695,0.08072060346603394
1771628598076927000,19.258927001953126,-0.36879539489746094,-0.10123294591903687,-0.21353057026863098
1771628598095725800,19.277725830078126,-0.990264892578125,0.035562753677368164,-0.4700034260749817
1771628598114525000,19.29652490234375,-1.3841447830200195,0.3988075852394104,-0.42270731925964355
1771628598133324000,19.315323974609374,-1.1896028518676758,0.5046864748001099,-0.4755535125732422
1771628598152123100,19.334123046875,-0.28899192810058594,0.22289729118347168,-0.5691916346549988
1771628598170922200,19.352922119140626,0.6212692260742188,-0.0389404296875,-0.5846812129020691
1771628598189721300,19.371721435546874,0.6438770294189453,-0.0692671537399292,-0.30383574962615967
1771628598208520400,19.3905205078125,0.26865386962890625,0.006052196025848389,-0.06544584035873413
1771628598227319600,19.409319580078126,0.07767486572265625,0.06676256656646729,-0.140206441283226
1771628598246118700,19.42811865234375,-0.23200607299804688,0.06304764747619629,-0.48038166761398315
1771628598264917800,19.446917724609374,-0.21961307525634766,-0.06743544340133667,-0.5481265783309937
1771628598283716900,19.465716796875,0.42519664764404297,-0.06699132919311523,-0.21393010020256042
1771628598302516000,19.484515869140626,1.3666582107543945,0.11394047737121582,0.2505190968513489
1771628598321315000,19.503315185546874,2.1765785217285156,0.26871979236602783,0.5620532631874084
1771628598340114200,19.5221142578125,1.8241405487060547,0.39006203413009644,0.1917266696691513
1771628598358913300,19.540913330078126,0.880706787109375,0.23154419660568237,-0.4422725737094879
1771628598377712400,19.55971240234375,0.8735218048095703,0.026032209396362305,-0.6157503128051758
1771628598396511500,19.578511474609375,0.45754051208496094,-0.484860897064209,-0.6465424299240112
1771628598415310600,19.597310546875,0.19274520874023438,-0.8015561699867249,0.02110016718506813
1771628598434109700,19.616109619140627,-0.0107574462890625,-0.7464987635612488,0.579587996006012
1771628598452908800,19.63490869140625,-0.9908065795898438,-0.28663522005081177,0.9259583950042725
1771628598471708000,19.6537080078125,-2.477421760559082,0.24095308780670166,1.126699686050415
1771628598490507000,19.672507080078127,-2.621373176574707,0.7314713001251221,1.4549235105514526
1771628598509306000,19.69130615234375,-1.683272361755371,0.9733607769012451,1.593760371208191
1771628598528105200,19.710105224609375,-1.0836915969848633,0.803700864315033,1.0274215936660767
1771628598546904300,19.728904296875,-0.31891536712646484,0.18245446681976318,0.0785464197397232
1771628598565703400,19.747703369140623,1.44195556640625,-0.5250664949417114,-0.2649347186088562
1771628598584502500,19.76650244140625,2.617934226989746,-0.9519224762916565,-0.34166473150253296
1771628598603301600,19.785301513671875,1.6438827514648438,-0.6479794979095459,-0.42988264560699463
1771628598622100700,19.804100830078124,-0.622645378112793,0.0869702696800232,-0.5941379070281982
1771628598640899800,19.82289990234375,-2.1165895462036133,0.5759341716766357,-0.2588847875595093
1771628598659699000,19.841698974609375,-2.376816749572754,0.6686061024665833,-0.05222323536872864
1771628598678498000,19.860498046875,-1.0006132125854492,0.5545198321342468,0.15094761550426483
1771628598697297200,19.879297119140624,-0.4056968688964844,0.5062153935432434,0.17637024819850922
1771628598716096300,19.89809619140625,-0.8000583648681641,0.6616486310958862,0.1778019666671753
1771628598734895400,19.916895263671876,-0.8976230621337891,0.6890591979026794,0.0902758240699768
1771628598753694500,19.935694580078124,-0.2764911651611328,0.49502724409103394,-0.03918108344078064
1771628598772493600,19.95449365234375,0.5782632827758789,0.40554797649383545,-0.4509844183921814
1771628598791292700,19.973292724609376,0.5356922149658203,0.561585009098053,-0.6434499025344849
1771628598810091800,19.992091796875,0.01681804656982422,0.7462986707687378,-0.35530874133110046
1771628598828891000,20.010890869140624,0.4521293640136719,0.6012133359909058,-0.05111284554004669
1771628598847690000,20.02968994140625,0.9030876159667969,0.23303449153900146,0.15977399051189423
1771628598866489000,20.048489013671876,1.5098381042480469,0.061099231243133545,0.21718095242977142
1771628598885288200,20.0672880859375,1.3990163803100586,0.15687692165374756,0.4176638722419739
1771628598904087300,20.08608740234375,0.7754745483398438,0.2710421681404114,0.4966520667076111
1771628598922886400,20.104886474609376,0.6418304443359375,0.16646808385849,0.313882052898407
1771628598941685500,20.123685546875,1.579747200012207,-0.08359628915786743,0.14142753183841705
1771628598960484600,20.142484619140625,1.8693389892578125,0.05094122886657715,0.2714160084724426
1771628598979283700,20.16128369140625,-0.13445758819580078,0.4619763493537903,0.28301697969436646
1771628598998082800,20.180082763671876,-1.6520099639892578,0.5048894286155701,0.10546775907278061
1771628599016882000,20.1988818359375,-0.9595670700073242,-0.30117881298065186,0.13287848234176636
1771628599035681000,20.217680908203125,1.0745973587036133,-1.2480374574661255,-0.09199769794940948
1771628599054480100,20.236480224609377,1.252976417541504,-1.7615995407104492,-0.31223243474960327
1771628599073279200,20.255279296875,-0.1031332015991211,-1.6356498003005981,0.09178678691387177
1771628599092078300,20.274078369140625,-0.7716836929321289,-1.3860409259796143,0.5376806855201721
1771628599110877400,20.29287744140625,-0.8295812606811523,-1.1626172065734863,0.5619593858718872
1771628599129676500,20.311676513671873,-0.29607677459716797,-0.9830847978591919,0.3636205494403839
1771628599148475600,20.3304755859375,-0.032787322998046875,-0.766829252243042,-0.027375930920243263
1771628599167274800,20.349274658203125,-0.03620147705078125,-0.5558451414108276,-0.33360183238983154
1771628599186073900,20.368073974609374,0.011827468872070312,-0.3709089159965515,-0.27058374881744385
1771628599204873000,20.386873046875,-0.3189716339111328,-0.29717129468917847,-0.15721644461154938
1771628599223672000,20.405672119140625,-0.5275001525878906,-0.30932050943374634,-0.03593523055315018
1771628599242471200,20.42447119140625,-0.44506168365478516,-0.1996157169342041,-0.03047075867652893
1771628599261270300,20.443270263671874,-0.6068572998046875,-0.07761478424072266,-0.09645523130893707
1771628599280069400,20.4620693359375,-1.006134033203125,0.019627273082733154,-0.11044186353683472
1771628599298868500,20.480868408203126,-1.3516035079956055,-0.09896117448806763,-0.22270230948925018
1771628599317667600,20.49966748046875,-1.0643882751464844,-0.22750324010849,-0.446262001991272
1771628599336466700,20.518466796875,-0.2709817886352539,-0.2505022883415222,-0.4615744948387146
1771628599355265800,20.537265869140626,-0.1594696044921875,-0.12264591455459595,-0.3658702075481415
1771628599374065000,20.55606494140625,-0.50836181640625,-0.07635122537612915,-0.362410306930542
1771628599392864000,20.574864013671874,-0.26943302154541016,-0.016686856746673584,-0.3019249439239502
1771628599411663000,20.5936630859375,0.07551383972167969,0.036472201347351074,-0.4254848062992096
1771628599430462200,20.612462158203126,0.23690223693847656,0.14915919303894043,-0.6721718311309814
1771628599449261300,20.63126123046875,0.592341423034668,0.10683459043502808,-0.8032925724983215
1771628599468060400,20.650060302734374,0.17092609405517578,-0.02459716796875,-1.0112591981887817
1771628599486859500,20.668859619140626,-0.28514575958251953,-0.12299531698226929,-1.2466835975646973
1771628599505658600,20.68765869140625,-0.37900352478027344,-0.07857215404510498,-1.2209573984146118
1771628599524457700,20.706457763671875,-0.03859519958496094,0.4783649444580078,-0.7841055393218994
1771628599543256800,20.7252568359375,-0.3168478012084961,0.9937130808830261,0.12592840194702148
1771628599562056000,20.744055908203126,0.008481025695800781,0.76213139295578,1.2311382293701172
1771628599580855000,20.76285498046875,2.256479263305664,0.22291988134384155,1.5169650316238403
1771628599599654100,20.781654052734375,3.2062854766845703,-0.2264447808265686,0.8286222219467163
1771628599618453200,20.800453369140627,1.383737564086914,-0.44261687994003296,0.43437904119491577
1771628599637252400,20.81925244140625,0.0704793930053711,-0.742805004119873,0.5500138998031616
1771628599656051500,20.838051513671875,-0.07080268859863281,-1.0568853616714478,0.7476456165313721
1771628599674850600,20.8568505859375,0.07137298583984375,-1.1436586380004883,0.8639101982116699
1771628599693649700,20.875649658203123,-0.35553741455078125,-0.6525436043739319,0.9027098417282104
1771628599712448800,20.89444873046875,-1.511103630065918,0.20971697568893433,0.6717390418052673
1771628599731247900,20.913247802734375,-2.624906539916992,0.8238243460655212,0.43193262815475464
1771628599750047000,20.932046875,-0.8395109176635742,0.779061496257782,0.3571416437625885
1771628599768846000,20.95084619140625,0.8374538421630859,0.12680846452713013,0.23533451557159424
1771628599787645200,20.969645263671875,2.4367332458496094,-0.3608735203742981,0.18500632047653198
1771628599806444300,20.9884443359375,2.6407337188720703,-0.38073083758354187,0.007521669380366802
1771628599825243400,21.007243408203124,0.8991012573242188,0.03557497262954712,-0.12868018448352814
1771628599844042500,21.02604248046875,-0.7017831802368164,0.3686453700065613,-0.1768069565296173
1771628599862841900,21.044841796875,-1.8124885559082031,0.4648279547691345,-0.036961667239665985
1771628599881640700,21.063640625,-2.249321937561035,0.5071700215339661,0.23754677176475525
1771628599900439800,21.082439697265624,-1.8028078079223633,0.4712379574775696,0.24560442566871643
1771628599919239000,21.101239013671876,-1.0725317001342773,0.3392741084098816,0.16327723860740662
1771628599938038000,21.1200380859375,-0.6049556732177734,0.2500237226486206,0.053828731179237366
1771628599956837400,21.13883740234375,-0.14938640594482422,0.21147942543029785,0.020070567727088928
1771628599975636200,21.15763623046875,0.33905792236328125,0.2847940921783447,-0.12051992863416672
1771628599994435600,21.176435546875,0.22396469116210938,0.4069064259529114,-0.18741728365421295
1771628600013234400,21.195234375,0.05263996124267578,0.5094728469848633,-0.12212860584259033
1771628600032033800,21.21403369140625,-0.07377052307128906,0.6093184351921082,-0.1740071177482605
1771628600050833000,21.2328330078125,-0.08413887023925781,0.5370663404464722,-0.18094131350517273
1771628600069631700,21.2516318359375,0.25903987884521484,0.3680552840232849,-0.14733558893203735
1771628600088431000,21.27043115234375,0.7654790878295898,0.20962494611740112,-0.06406769156455994
1771628600107230000,21.28922998046875,0.920231819152832,0.2839822769165039,0.0495523139834404
1771628600126029300,21.308029296875,0.26695823669433594,0.45756351947784424,0.14359170198440552
1771628600144828400,21.326828369140625,-0.09827232360839844,0.44826561212539673,0.013365887105464935
1771628600163627500,21.34562744140625,-0.3066444396972656,0.3511846661567688,-0.4387352168560028
1771628600182426600,21.364426513671877,-0.0452117919921875,0.24851489067077637,-0.828869640827179
1771628600201225700,21.383225830078125,0.6937532424926758,0.320121169090271,-0.9098427891731262
1771628600220024800,21.40202490234375,1.117640495300293,0.4767712354660034,-0.5000309348106384
1771628600238824000,21.420823974609377,0.807581901550293,0.4374905824661255,-0.05397561192512512
1771628600267022600,21.449022705078125,0.2453470230102539,0.1168893575668335,0.3926125466823578
1771628600285821700,21.46782177734375,0.8375988006591797,-0.3214527368545532,0.5385541915893555
1771628600304620800,21.486620849609373,2.0353927612304688,-0.9890618324279785,0.5305544137954712
1771628600323420000,21.505419921875,1.946681022644043,-1.4286069869995117,0.31960180401802063
1771628600342219000,21.524218994140625,-0.05382061004638672,-1.3031587600708008,0.2992839217185974
1771628600361018000,21.54301806640625,-1.5629358291625977,-0.9476988911628723,0.5197550058364868
1771628600379817200,21.561817138671874,-2.2763543128967285,-0.6923078894615173,0.4944690465927124
1771628600398616300,21.5806162109375,-2.36415958404541,-0.6138249635696411,0.16438229382038116
1771628600426815000,21.60881494140625,-0.7616033554077148,-0.965404748916626,0.28499624133110046
1771628600445614000,21.627614013671874,0.6772098541259766,-1.1278650760650635,0.4767748713493347
1771628600464413200,21.6464130859375,1.0745973587036133,-1.010034441947937,0.26333868503570557
1771628600483212300,21.66521240234375,0.2507200241088867,-0.431879460811615,0.000005505979061126709
1771628600502011400,21.684011474609374,-0.7142133712768555,0.15785455703735352,-0.3855361044406891
1771628600520810500,21.702810546875,-1.0536270141601562,0.3239402770996094,-0.3935546875
1771628600539609600,21.721609619140626,-0.7391080856323242,0.07073265314102173,-0.38605764508247375
1771628600558408700,21.74040869140625,-0.6313018798828125,-0.05875074863433838,-0.3847031593322754
1771628600577207800,21.759207763671874,-0.6977376937866211,0.0629543662071228,-0.6441104412078857
1771628600596007000,21.7780068359375,-0.7699451446533203,0.06944471597671509,-0.852806806564331
1771628600614806000,21.796805908203126,-0.30420494079589844,-0.09185117483139038,-0.8031936883926392
1771628600633605000,21.815605224609374,0.0929422378540039,-0.2528096139431,-0.5086765289306641
1771628600652404200,21.834404296875,0.0587005615234375,-0.1285337209701538,-0.3946780562400818
1771628600671203300,21.853203369140626,-0.34659481048583984,0.029595911502838135,-0.4454819858074188
1771628600690002700,21.872002685546875,-0.4404869079589844,0.18240928649902344,-0.5089610815048218
1771628600708801500,21.890801513671875,0.06546878814697266,0.18714183568954468,-0.6989431977272034
1771628600727601000,21.909600830078126,0.4915342330932617,0.11082136631011963,-0.8210991024971008
1771628600746399700,21.928399658203126,0.8936061859130859,-0.027480125427246094,-0.6910385489463806
1771628600765199000,21.94719921875,0.7749118804931641,-0.23794308304786682,-0.5215050578117371
1771628600783998200,21.965998291015627,0.42378807067871094,-0.2523254156112671,-0.01478055864572525
1771628600802797300,21.98479736328125,-0.0844583511352539,0.23144441843032837,-0.028876937925815582
1771628600821596400,22.003596435546875,-0.31436634063720703,0.7090027928352356,0.18805372714996338
1771628600840395500,22.0223955078125,0.5094137191772461,0.662009596824646,0.46406227350234985
1771628600859194600,22.041194580078123,2.422689437866211,0.16946721076965332,0.35320430994033813
1771628600877993700,22.05999365234375,3.281153678894043,-0.3895382285118103,0.1318332403898239
1771628600896792800,22.078792724609375,2.0782947540283203,-0.5496355295181274,0.1952960193157196
1771628600915592000,22.097592041015623,0.985478401184082,-0.5001727342605591,0.45399245619773865
1771628600934391000,22.11639111328125,-0.041182518005371094,-0.6087214946746826,0.27386993169784546
1771628600962589700,22.144589599609375,-0.5458288192749023,-0.7046393156051636,0.5577995181083679
1771628600981388800,22.163388916015624,-1.0798778533935547,-0.40776360034942627,0.8665682673454285
1771628601000188000,22.18218798828125,-1.872776985168457,-0.006471037864685059,0.8732203841209412
1771628601018987000,22.200987060546876,-1.6862659454345703,0.20157545804977417,0.7775202393531799
1771628601047185700,22.229185546875,-1.0988378524780273,0.07274746894836426,0.48935413360595703
1771628601065984800,22.24798486328125,-1.2084054946899414,-0.14148759841918945,0.346463143825531
1771628601084783900,22.266783935546876,-0.4842414855957031,-0.355773389339447,0.06380324065685272
1771628601103583000,22.2855830078125,0.7556638717651367,-0.539860725402832,-0.04784523695707321
1771628601131781600,22.31378173828125,1.303574562072754,-0.4895946979522705,-0.040962785482406616
1771628601159980300,22.341980224609376,0.3116121292114258,-0.0377083420753479,0.18236397206783295
1771628601178779400,22.360779296875,-0.05317878723144531,0.2529739737510681,0.13026992976665497
1771628601197578500,22.37957861328125,-0.1149282455444336,0.39161258935928345,0.05535367131233215
1771628601216377600,22.398377685546876,-0.1526021957397461,0.4905078411102295,0.12309962511062622
1771628601235177000,22.417177001953124,-0.1908884048461914,0.513376772403717,0.29923850297927856
1771628601253975800,22.435975830078124,-0.1298542022705078,0.5413306951522827,0.23228488862514496
1771628601272775200,22.454775146484376,-0.29882049560546875,0.6678429245948792,0.214840829372406
1771628601291574000,22.473573974609376,-0.31078624725341797,0.8108092546463013,0.26257580518722534
1771628601310373400,22.492373291015625,-0.3130512237548828,0.8055387139320374,0.35239657759666443
1771628601329172500,22.51117236328125,-0.12186241149902344,0.6861660480499268,0.1729905754327774
1771628601347971600,22.5299716796875,-0.1363048553466797,0.5589358806610107,0.004391476511955261
1771628601366770700,22.548770751953125,-0.30419063568115234,0.473736047744751,-0.3492826223373413
1771628601385569800,22.56756982421875,-0.2476482391357422,0.3694154620170593,-0.8096509575843811
1771628601404369000,22.586368896484377,-0.049747467041015625,0.2746967673301697,-0.9159442186355591
1771628601423168000,22.60516796875,0.03783702850341797,0.31172966957092285,-0.7684997916221619
1771628601441967000,22.623967041015625,-0.14893817901611328,0.45098841190338135,-0.6541849374771118
1771628601460766200,22.64276611328125,-0.45340919494628906,0.7336328625679016,-0.5366322994232178
1771628601479565300,22.6615654296875,-0.5117101669311523,0.8708214163780212,-0.33280521631240845
1771628601498364400,22.680364501953125,0.45967578887939453,0.5649415254592896,-0.0350511334836483
1771628601517163500,22.69916357421875,2.1151790618896484,0.15549081563949585,0.22455696761608124
1771628601535962600,22.717962646484374,2.882431983947754,-0.03424966335296631,0.3277478516101837
1771628601554761700,22.73676171875,1.6493043899536133,-0.14037162065505981,0.4276786744594574
1771628601573560800,22.755560791015625,0.10755252838134766,-0.18734723329544067,0.3453056514263153
1771628601592360000,22.77435986328125,-0.04367828369140625,-0.29276832938194275,0.4342195689678192
1771628601611159000,22.793158935546874,0.9331655502319336,-0.6035718321800232,0.3756089210510254
1771628601629958100,22.811958251953126,1.309835433959961,-0.9093891978263855,0.2331206053495407
1771628601648757200,22.83075732421875,0.1824207305908203,-0.9500991106033325,0.12874332070350647
1771628601667556400,22.849556396484374,-0.8741731643676758,-0.9158213138580322,0.008272962644696236
1771628601686355700,22.868355712890626,-1.553375244140625,-0.9170611500740051,-0.06614384800195694
1771628601705154600,22.887154541015626,-1.2588310241699219,-1.0024466514587402,-0.1422198861837387
1771628601723954000,22.905953857421874,-0.6070680618286133,-1.1180784702301025,-0.14575958251953125
1771628601742752800,22.924752685546874,-0.6738643646240234,-1.0272599458694458,0.07778257876634598
1771628601761552100,22.94355224609375,-0.7047090530395508,-0.8035857677459717,0.42139607667922974
1771628601780351200,22.962351318359374,-0.25998401641845703,-0.5536838173866272,0.3866824507713318
1771628601799150300,22.981150390625,-0.5361099243164062,-0.24850881099700928,0.16981104016304016
1771628601817949400,22.999949462890626,-1.0053815841674805,0.051405131816864014,0.037475213408470154
1771628601836748500,23.01874853515625,-0.7064657211303711,0.11569017171859741,-0.07025705277919769
1771628601855547600,23.037547607421875,0.26093292236328125,-0.08131575584411621,0.0262962207198143
1771628601874346800,23.0563466796875,0.5118961334228516,-0.24077677726745605,-0.29790353775024414
1771628601893145900,23.075145751953126,0.02970409393310547,-0.21956709027290344,-0.49890515208244324
1771628601911945000,23.093945068359375,-0.5583858489990234,-0.033777594566345215,-0.5698428153991699
1771628601930744000,23.112744140625,-0.9281435012817383,0.1346530318260193,-0.8435376882553101
1771628601949543200,23.131543212890627,-0.7136764526367188,0.19807249307632446,-0.8857986927032471
1771628601968342300,23.15034228515625,-0.3505716323852539,0.10849308967590332,-0.7074794173240662
1771628601996541000,23.178541015625,0.2623472213745117,0.011841297149658203,-0.5962119102478027
1771628602015340000,23.197340087890623,0.35598278045654297,0.0033998489379882812,-0.6990506649017334
1771628602034139100,23.21613916015625,0.17296695709228516,0.024706900119781494,-0.6650486588478088
1771628602052938200,23.234938232421875,-0.03526496887207031,-0.01450967788696289,-0.5541141033172607
1771628602071737600,23.253737548828123,-0.0735464096069336,-0.06677740812301636,-0.43602147698402405
1771628602099936000,23.28193603515625,0.03145313262939453,-0.037208497524261475,-0.41418272256851196
1771628602118735000,23.300735107421875,0.3307914733886719,0.2222384810447693,-0.22635836899280548
1771628602137534500,23.319534423828124,0.2758960723876953,0.5443652868270874,-0.06062464788556099
1771628602156333300,23.338333251953124,0.571284294128418,0.4955686926841736,0.29023420810699463
1771628602175132700,23.357132568359376,1.2796268463134766,0.31240737438201904,0.4497828483581543
1771628602193931500,23.375931640625,0.9760065078735352,0.2165049910545349,0.19433718919754028
1771628602212731000,23.39473095703125,-0.3357048034667969,0.18242430686950684,-0.16205190122127533
1771628602231530000,23.413530029296876,-0.2758369445800781,0.01770263910293579,-0.2042963206768036
1771628602250329000,23.4323291015625,0.5570945739746094,-0.5441586971282959,0.13214656710624695
1771628602269128200,23.451128173828124,0.841242790222168,-0.9284996390342712,0.9824526309967041
1771628602287927300,23.46992724609375,0.5375032424926758,-0.7874654531478882,1.2706059217453003
1771628602306726400,23.488726318359376,-0.30272579193115234,-0.35322991013526917,0.9924176335334778
1771628602325525500,23.507525390625,-0.9662904739379883,0.051970064640045166,0.8147464394569397
1771628602344324600,23.52632470703125,-0.6238899230957031,0.36628568172454834,0.6819802522659302
1771628602363123700,23.545123779296876,-0.48764610290527344,0.507705569267273,0.6216297149658203
1771628602381922800,23.5639228515625,-0.052074432373046875,0.46110689640045166,0.6424621939659119
1771628602400722000,23.582721923828124,0.5793018341064453,0.2866770625114441,0.3320161998271942
1771628602419521000,23.60152099609375,1.1060848236083984,0.019428491592407227,0.07259608060121536
1771628602438320000,23.620320068359376,0.8833866119384766,-0.03274428844451904,-0.28495466709136963
1771628602457119200,23.639119140625,-0.4265756607055664,0.02927255630493164,-0.3276293873786926
