time,seconds_elapsed,z,y,x
1771998720815071500,0.107071533203125,0,0,0
1771998720833869800,0.125869873046875,-0.007166862487792969,-0.024411320686340332,-0.018431007862091064
1771998720852668200,0.144668212890625,0.08407211303710938,0.000460207462310791,0.005591034889221191
1771998720871466500,0.163466552734375,-0.1815481185913086,-0.01889634132385254,0.046189963817596436
1771998720890264800,0.182264892578125,-0.13808059692382812,0.04088073968887329,0.04428490996360779
1771998720909063200,0.201063232421875,-0.08386421203613281,0.06698083877563477,0.0714927613735199
1771998720927861500,0.219861572265625,-0.03567695617675781,0.048860013484954834,0.02874988317489624
1771998720946659600,0.23865966796875,0.000667572021484375,-0.030516088008880615,-0.02347797155380249
1771998720965458200,0.257458251953125,0.006487846374511719,-0.016798734664916992,-0.07536658644676208
1771998720984256500,0.276256591796875,-0.054038047790527344,0.0470883846282959,-0.017629951238632202
1771998721003054800,0.295054931640625,-0.0648193359375,0.07489168643951416,0.04936257004737854
1771998721021853200,0.313853271484375,0.0648040771484375,0.029248952865600586,0.04154646396636963
1771998721040651500,0.332651611328125,0.019603729248046875,-0.06208229064941406,0.023451417684555054
1771998721059449900,0.351449951171875,0.04764366149902344,-0.13961809873580933,-0.04710596799850464
1771998721078248200,0.370248291015625,0.019266128540039062,-0.1132735013961792,-0.01912444829940796
1771998721097046500,0.389046630859375,-0.014964103698730469,0.0016581416130065918,-0.0178106427192688
1771998721115844900,0.407844970703125,0.015114784240722656,0.0406646728515625,-0.0671091377735138
1771998721134643200,0.426643310546875,-0.031105995178222656,-0.02914375066757202,-0.03413128852844238
1771998721153441500,0.445441650390625,0.0033807754516601562,-0.08655589818954468,-0.02628457546234131
1771998721172240000,0.464239990234375,0.05265522003173828,-0.056224822998046875,-0.07343870401382446
1771998721191038200,0.4830380859375,0.03351306915283203,-0.07936263084411621,-0.07629004120826721
1771998721209836500,0.50183642578125,-0.03379344940185547,-0.03612339496612549,0.014889299869537354
1771998721228635000,0.520634765625,-0.010869979858398438,0.025143563747406006,-0.025715619325637817
1771998721247433200,0.53943310546875,-0.009059906005859375,0.005387246608734131,-0.09507730603218079
1771998721266231600,0.5582314453125,-0.01090240478515625,-0.011325836181640625,-0.1055203378200531
1771998721285030000,0.57702978515625,-0.027431488037109375,-0.08279424905776978,-0.017916500568389893
1771998721303828200,0.595828125,-0.018752098083496094,-0.07007277011871338,-0.009217977523803711
1771998721322626600,0.61462646484375,0.0047149658203125,0.009853839874267578,-0.02891179919242859
1771998721341425000,0.6334248046875,-0.02023601531982422,0.08313113451004028,-0.06946048140525818
1771998721360223200,0.65222314453125,-0.032619476318359375,0.09258913993835449,-0.08407121896743774
1771998721379021600,0.671021484375,-0.032753944396972656,0.06204944849014282,-0.09442952275276184
1771998721397820000,0.68981982421875,-0.01656341552734375,0.004884481430053711,-0.05139040946960449
1771998721416618200,0.7086181640625,0.03624916076660156,-0.02527862787246704,-0.05257129669189453
1771998721435416600,0.72741650390625,0.04544639587402344,-0.03239619731903076,-0.02957788109779358
1771998721454215000,0.74621484375,0.04282569885253906,0.027720272541046143,-0.01382911205291748
1771998721473013200,0.76501318359375,0.0032501220703125,0.04537832736968994,-0.018534094095230103
1771998721491811600,0.7838115234375,0.005715370178222656,0.056714415550231934,0.019389748573303223
1771998721510610000,0.80260986328125,0.004894256591796875,0.06630897521972656,0.02412697672843933
1771998721529408300,0.821408203125,0.011774063110351562,0.034141480922698975,0.011690706014633179
1771998721548206600,0.84020654296875,0.016773223876953125,-0.03782409429550171,0.00412943959236145
1771998721567005000,0.8590048828125,-0.0725860595703125,-0.03243905305862427,0.026418626308441162
1771998721585803300,0.87780322265625,-0.1072835922241211,0.053549349308013916,-0.007858693599700928
1771998721604601600,0.8966015625,0.00801849365234375,0.04532068967819214,-0.01046326756477356
1771998721623400000,0.91539990234375,0.03402519226074219,-0.0062354207038879395,-0.03153049945831299
1771998721642198000,0.934197998046875,0.05701255798339844,0.022785604000091553,0.018360555171966553
1771998721660996400,0.952996337890625,0.037296295166015625,0.039263129234313965,0.052280575037002563
1771998721679794700,0.971794677734375,-0.028072357177734375,0.07578712701797485,0.027862191200256348
1771998721698593000,0.990593017578125,-0.03509712219238281,0.054827749729156494,0.05263856053352356
1771998721717391400,1.009391357421875,-0.010715484619140625,-0.0018640756607055664,0.032927483320236206
1771998721736189700,1.028189697265625,0.023571014404296875,-0.04262334108352661,0.023895174264907837
1771998721754988000,1.046988037109375,0.06126117706298828,-0.04080533981323242,0.014654487371444702
1771998721773786400,1.065786376953125,0.046212196350097656,0.008705854415893555,-0.012057095766067505
1771998721792584700,1.084584716796875,0.06311798095703125,0.0395321249961853,-0.03182798624038696
1771998721811383000,1.103383056640625,0.038558006286621094,0.05006265640258789,0.025055021047592163
1771998721830181400,1.122181396484375,-0.018283843994140625,-0.007037341594696045,-0.055007338523864746
1771998721848979700,1.140979736328125,-0.021938323974609375,-0.059837937355041504,-0.047177642583847046
1771998721867778000,1.159778076171875,-0.04131793975830078,-0.03570199012756348,-0.038982242345809937
1771998721886576400,1.178576416015625,0.0021181106567382812,0.012028276920318604,-0.036049485206604004
1771998721905374700,1.197374755859375,0.004536628723144531,0.025557994842529297,-0.034372925758361816
1771998721924173000,1.216173095703125,0.009124755859375,0.035544753074645996,-0.035673558712005615
1771998721942971400,1.234971435546875,0.03520488739013672,0.05773270130157471,0.00596955418586731
1771998721961769700,1.253769775390625,-0.022008895874023438,0.008158087730407715,0.02144467830657959
1771998721980568000,1.272568115234375,-0.03089618682861328,0.0246812105178833,0.01742696762084961
1771998721999366400,1.291366455078125,-0.037761688232421875,-0.008625626564025879,-0.029256314039230347
1771998722018164700,1.310164794921875,-0.007049560546875,-0.0009635686874389648,-0.06975069642066956
1771998722036963000,1.328963134765625,-0.008455276489257812,-0.03808736801147461,-0.0014233887195587158
1771998722055761400,1.347761474609375,-0.009660720825195312,-0.0012834668159484863,0.026909321546554565
1771998722074559700,1.366559814453125,0.01776123046875,-0.04767608642578125,0.05316552519798279
1771998722093358000,1.385358154296875,0.07326793670654297,-0.02796846628189087,0.0051114559173583984
1771998722112156700,1.40415673828125,0.08603382110595703,0.003122985363006592,-0.053727179765701294
1771998722130955000,1.422955078125,0.07193660736083984,0.009229838848114014,-0.056239932775497437
1771998722149753300,1.44175341796875,0.015512466430664062,0.02792114019393921,-0.11035901308059692
1771998722168551700,1.4605517578125,-0.11270523071289062,0.07616984844207764,-0.012746840715408325
1771998722187350000,1.47935009765625,-0.13405609130859375,0.10115951299667358,-0.007652610540390015
1771998722206148400,1.4981484375,-0.09728813171386719,0.005418360233306885,0.01622462272644043
1771998722224946700,1.51694677734375,-0.03404045104980469,-0.028293609619140625,0.023553460836410522
1771998722243745000,1.5357451171875,0.047049522399902344,-0.01987403631210327,0.02912992238998413
1771998722262543400,1.55454345703125,0.08704662322998047,0.022054612636566162,0.021855711936950684
1771998722281341700,1.573341796875,0.02860736846923828,0.030181825160980225,-0.02077046036720276
1771998722300140000,1.59214013671875,0.017301559448242188,-0.01190483570098877,-0.03935381770133972
1771998722318938400,1.6109384765625,0.007624626159667969,-0.05346709489822388,-0.05357524752616882
1771998722337736700,1.62973681640625,0.01601123809814453,-0.045052409172058105,-0.0639561116695404
1771998722356535000,1.64853515625,0.02851390838623047,-0.01681351661682129,-0.018285930156707764
1771998722375333400,1.66733349609375,0.013377189636230469,0.004942953586578369,-0.03866615891456604
1771998722394131500,1.68613134765625,-0.05301189422607422,-0.02210158109664917,-0.032366394996643066
1771998722412929800,1.7049296875,-0.04383563995361328,-0.025868654251098633,-0.04939866065979004
1771998722431728000,1.72372802734375,0.03922557830810547,0.0023115873336791992,-0.007335454225540161
1771998722450526500,1.7425263671875,0.03235054016113281,0.003288447856903076,0.004872709512710571
1771998722469324800,1.76132470703125,-0.007222175598144531,-0.004332423210144043,0.008080810308456421
1771998722488123100,1.780123046875,0.031719207763671875,-0.08302438259124756,0.05826514959335327
1771998722506921500,1.79892138671875,0.07991313934326172,-0.061495304107666016,0.02644321322441101
1771998722525719800,1.8177197265625,0.038657188415527344,-0.006089985370635986,0.00430712103843689
1771998722544518100,1.83651806640625,-0.06279373168945312,0.0569148063659668,-0.017147928476333618
1771998722563316500,1.85531640625,-0.034636497497558594,0.044775545597076416,-0.04126930236816406
1771998722582114800,1.87411474609375,-0.019205093383789062,0.04435199499130249,-0.06686460971832275
1771998722600913200,1.8929130859375,-0.00464630126953125,0.05041927099227905,-0.029378116130828857
1771998722619711500,1.91171142578125,-0.021406173706054688,-0.010660052299499512,-0.0016434192657470703
1771998722638509800,1.930509765625,-0.011531829833984375,-0.005748093128204346,0.008523404598236084
1771998722657308200,1.94930810546875,0.017493247985839844,0.03707301616668701,-0.04928618669509888
1771998722676106500,1.9681064453125,0.03871631622314453,-0.002664327621459961,-0.06830635666847229
1771998722694904800,1.98690478515625,0.0058135986328125,-0.07490271329879761,-0.003534168004989624
1771998722713703200,2.005703125,0.01723194122314453,-0.10470181703567505,0.06884583830833435
1771998722732501500,2.02450146484375,0.0759115219116211,-0.11821526288986206,0.0641196072101593
1771998722751299800,2.0432998046875,0.040482521057128906,-0.043843626976013184,-0.04374819993972778
1771998722770098200,2.06209814453125,-0.10021781921386719,0.001919865608215332,-0.0076898932456970215
1771998722788896500,2.080896484375,-0.0011529922485351562,0.06359553337097168,0.05276376008987427
1771998722807694800,2.09969482421875,-0.0187530517578125,0.04571324586868286,0.07037395238876343
1771998722826493200,2.1184931640625,-0.013411521911621094,0.08921253681182861,0.029979825019836426
1771998722845291500,2.13729150390625,-0.009175300598144531,-0.003915250301361084,0.0437716543674469
1771998722864089900,2.15608984375,0.019552230834960938,-0.05269300937652588,-0.005753576755523682
1771998722882888200,2.17488818359375,0.026605606079101562,-0.03451317548751831,-0.06618383526802063
1771998722901686500,2.1936865234375,-0.020318031311035156,0.03567987680435181,-0.06679651141166687
1771998722920484900,2.21248486328125,-0.0073394775390625,0.0016286969184875488,-0.010326266288757324
1771998722939283200,2.231283203125,0.022444725036621094,-0.006158113479614258,-0.03259655833244324
1771998722958081500,2.25008154296875,0.043053627014160156,-0.025476694107055664,-0.025985389947891235
1771998722976879900,2.2688798828125,0.06888008117675781,-0.053188204765319824,-0.05169174075126648
1771998722995678200,2.28767822265625,0.0150146484375,-0.021009087562561035,-0.10144340991973877
1771998723014476500,2.3064765625,-0.055156707763671875,0.025113582611083984,-0.04261213541030884
1771998723033275000,2.32527490234375,-0.08448314666748047,0.019729256629943848,0.006914764642715454
1771998723052073200,2.3440732421875,-0.048661231994628906,0.008466958999633789,0.019692838191986084
1771998723070871600,2.36287158203125,-0.019188880920410156,-0.04306310415267944,0.00842931866645813
1771998723089670000,2.381669921875,0.02685260772705078,-0.10832345485687256,-0.0367303192615509
1771998723108468200,2.40046826171875,0.018652915954589844,-0.04591679573059082,-0.05764445662498474
1771998723127266600,2.4192666015625,-0.0036411285400390625,0.02293074131011963,-0.03921887278556824
1771998723146065000,2.43806494140625,0.0036230087280273438,0.10159176588058472,-0.037619829177856445
1771998723164863200,2.45686328125,-0.06728267669677734,0.08374196290969849,-0.06759059429168701
1771998723183661600,2.47566162109375,-0.059615135192871094,-0.004781007766723633,-0.07302689552307129
1771998723202460000,2.4944599609375,-0.021516799926757812,-0.07112264633178711,-0.02768850326538086
1771998723221258200,2.51325830078125,-0.04686260223388672,-0.05131775140762329,-0.1240529716014862
1771998723240056600,2.532056640625,-0.06557178497314453,0.01230543851852417,-0.08238893747329712
1771998723258855000,2.55085498046875,-0.07137775421142578,0.01360464096069336,0.021834462881088257
1771998723277653200,2.5696533203125,-0.014004707336425781,-0.037830471992492676,-0.008259624242782593
1771998723296451600,2.58845166015625,0.07707786560058594,-0.0752304196357727,-0.056136906147003174
1771998723315250000,2.60725,-0.0011501312255859375,0.004245936870574951,0.028377830982208252
1771998723334048300,2.62604833984375,-0.01200103759765625,0.023948609828948975,0.06630143523216248
1771998723352846600,2.6448466796875,-0.02948474884033203,0.027140557765960693,0.030940353870391846
1771998723371645000,2.66364501953125,-0.10996055603027344,-0.029875993728637695,0.05020153522491455
1771998723390443300,2.682443359375,-0.009180068969726562,-0.0034743547439575195,0.11851575970649719
1771998723409241600,2.70124169921875,0.0352630615234375,-0.03610265254974365,0.1283370554447174
1771998723428040000,2.7200400390625,0.107666015625,0.04100722074508667,0.09332767128944397
1771998723446838300,2.73883837890625,0.09169483184814453,0.11285129189491272,0.12771070003509521
1771998723465636600,2.75763671875,-0.0262603759765625,0.18638545274734497,0.16315996646881104
1771998723484435000,2.77643505859375,-0.10695266723632812,0.15283751487731934,0.19694530963897705
1771998723503233300,2.7952333984375,-0.10203170776367188,0.0218350887298584,0.12962758541107178
1771998723522031600,2.814031494140625,-0.008048057556152344,-0.08781802654266357,0.0029720962047576904
1771998723540830000,2.832829833984375,-0.01813220977783203,-0.19878268241882324,-0.048785388469696045
1771998723559628300,2.851628173828125,0.0018405914306640625,-0.17151230573654175,-0.09621414542198181
1771998723578426600,2.870426513671875,-0.023612022399902344,-0.10270023345947266,0.07065421342849731
1771998723597225000,2.889224853515625,0.031373023986816406,0.08228260278701782,0.17596787214279175
1771998723616023300,2.908023193359375,-0.2067880630493164,0.24200710654258728,0.29013383388519287
1771998723634821600,2.926821533203125,-0.2789297103881836,0.29277294874191284,0.2930724322795868
1771998723653620000,2.945619873046875,-0.24056148529052734,0.15365242958068848,0.4973130226135254
1771998723672418300,2.964418212890625,-0.06631660461425781,-0.0639500617980957,0.7653070688247681
1771998723691216600,2.983216552734375,0.13135147094726562,-0.08521747589111328,1.0763189792633057
1771998723710015000,3.002014892578125,0.3205223083496094,0.009377598762512207,1.1559102535247803
1771998723728813300,3.020813232421875,0.4225950241088867,0.09264606237411499,1.0440038442611694
1771998723747611600,3.039611572265625,0.40425777435302734,0.0505906343460083,0.8715324401855469
1771998723766410000,3.058409912109375,0.25734806060791016,-0.08701831102371216,0.6684107780456543
1771998723785208300,3.077208251953125,0.17728042602539062,-0.23774582147598267,0.5350329279899597
1771998723804006700,3.096006591796875,0.09736251831054688,-0.27444255352020264,0.5553463697433472
1771998723822805000,3.114804931640625,-0.03656196594238281,-0.257996141910553,0.6663349270820618
1771998723841603300,3.133603271484375,-0.11749458312988281,-0.3360573649406433,0.6737523078918457
1771998723860401700,3.152401611328125,-0.128875732421875,-0.25664108991622925,0.5810405015945435
1771998723879200000,3.171199951171875,-0.04878425598144531,-0.07250499725341797,0.4391157329082489
1771998723897998300,3.189998291015625,-0.11434364318847656,0.024509787559509277,0.3662016689777374
1771998723916796700,3.208796630859375,-0.41756248474121094,0.0014060139656066895,0.513113796710968
1771998723935595000,3.227594970703125,-0.44377994537353516,-0.06078237295150757,0.7275161147117615
1771998723954393300,3.246393310546875,-0.4138164520263672,-0.0554162859916687,0.8043986558914185
1771998723973191700,3.265191650390625,-0.4018096923828125,-0.02482837438583374,0.8630815744400024
1771998723991990000,3.283989990234375,-0.19513511657714844,-0.0722954273223877,0.9706383347511292
1771998724010788400,3.302788330078125,0.053806304931640625,-0.05612003803253174,1.0621824264526367
1771998724029586700,3.321586669921875,0.15898895263671875,0.008007407188415527,1.1678000688552856
1771998724048385000,3.340385009765625,0.23549747467041016,0.2803078889846802,1.176096796989441
1771998724067183400,3.359183349609375,0.0035333633422851562,0.47939246892929077,1.0707063674926758
1771998724085981700,3.377981689453125,-0.19806671142578125,0.38841766119003296,0.9136279225349426
1771998724104780000,3.396780029296875,-0.18395519256591797,0.1214025616645813,0.792271077632904
1771998724123578400,3.415578369140625,0.4357423782348633,-0.35661542415618896,1.0697239637374878
1771998724142376700,3.434376708984375,1.1473636627197266,-0.23287826776504517,1.0447717905044556
1771998724161174800,3.4531748046875,1.7337017059326172,0.4766337275505066,0.2251739352941513
1771998724179973000,3.47197314453125,1.2809391021728516,0.8435743451118469,-0.6520828008651733
1771998724208170800,3.500170654296875,-0.23955726623535156,0.32117408514022827,-0.9562731385231018
1771998724226969000,3.518968994140625,-0.8442525863647461,-0.14534640312194824,-0.7375851273536682
1771998724245767400,3.537767333984375,-1.205430030822754,0.04035139083862305,-0.6088534593582153
1771998724264565800,3.556565673828125,-1.2027950286865234,-0.013841032981872559,-0.2481505423784256
1771998724283364000,3.575364013671875,-0.6165475845336914,-0.0657382607460022,0.0896284431219101
1771998724302162400,3.594162353515625,-0.06481742858886719,0.06682252883911133,0.17309331893920898
1771998724320960800,3.612960693359375,0.24110126495361328,-0.013930141925811768,0.07256104052066803
1771998724339759000,3.631759033203125,0.7185039520263672,-0.2679401636123657,-0.36850619316101074
1771998724358557400,3.650557373046875,1.5492095947265625,0.06800049543380737,-0.9742813110351562
1771998724377355800,3.669355712890625,1.834909439086914,0.4223703145980835,-1.518744945526123
1771998724396154000,3.688154052734375,1.4063444137573242,0.22651758790016174,-1.4352585077285767
1771998724414952400,3.706952392578125,0.7108850479125977,0.012261241674423218,-1.1978904008865356
1771998724433750800,3.725750732421875,-0.05567455291748047,-0.1605391800403595,-1.1004128456115723
1771998724452549000,3.744549072265625,-0.39014339447021484,-0.14176389575004578,-0.8476674556732178
1771998724471347500,3.763347412109375,-0.007182121276855469,-0.18582752346992493,-0.5749177932739258
1771998724490145800,3.782145751953125,-0.09530925750732422,-0.14980274438858032,-0.6943879127502441
1771998724508944100,3.800944091796875,-0.9138965606689453,-0.19027763605117798,-1.2251002788543701
1771998724527742500,3.819742431640625,-1.2785634994506836,-0.4100190997123718,-1.7952792644500732
1771998724546540800,3.838540771484375,-0.6822509765625,-0.7687534093856812,-2.2288432121276855
1771998724565339100,3.857339111328125,0.2952156066894531,-1.1917524337768555,-2.124987840652466
1771998724584137500,3.876137451171875,0.5920000076293945,-0.9308664798736572,-1.7183926105499268
1771998724602935800,3.894935791015625,0.32204627990722656,-0.21595150232315063,-1.6568009853363037
1771998724621734100,3.913734130859375,-0.13434219360351562,-0.07459366321563721,-1.507948875427246
1771998724640532200,3.9325322265625,-0.06849956512451172,-0.35589608550071716,-0.9086111783981323
1771998724659330600,3.95133056640625,0.26010704040527344,-0.39930224418640137,-0.9045217037200928
1771998724678129200,3.970129150390625,0.2748270034790039,-0.2821618914604187,-0.9917093515396118
1771998724696927200,3.98892724609375,-0.05781745910644531,-0.20192182064056396,-0.9945379495620728
1771998724715725600,4.0077255859375,-0.7127208709716797,-0.25126025080680847,-0.7506996393203735
1771998724734524000,4.02652392578125,-0.5503778457641602,-0.07685837149620056,-0.7142873406410217
1771998724753322200,4.045322265625,-0.05298137664794922,0.2597304582595825,-0.9120336771011353
1771998724772120600,4.06412060546875,-0.6690034866333008,-0.07613730430603027,-0.9400874972343445
1771998724790919000,4.0829189453125,-1.3289690017700195,-0.07240024209022522,-0.7909152507781982
1771998724809717200,4.10171728515625,-1.3231935501098633,-0.09128618240356445,-0.5280876159667969
1771998724828515600,4.120515625,-0.5385189056396484,-0.2935241162776947,-0.266581267118454
1771998724847314000,4.13931396484375,-0.29824066162109375,-0.5730499029159546,-0.38253071904182434
1771998724866112300,4.1581123046875,-0.2852439880371094,-0.7683025598526001,-0.2859722077846527
1771998724884910600,4.17691064453125,-0.5474567413330078,-0.5555495023727417,-0.2295483946800232
1771998724903709000,4.195708984375,-0.9961986541748047,-0.24142754077911377,-0.2591805160045624
1771998724922507300,4.21450732421875,-0.7917890548706055,-0.2714325189590454,-0.061591506004333496
1771998724941305600,4.2333056640625,-0.6732139587402344,-0.5959402322769165,0.10897257924079895
1771998724960104000,4.25210400390625,-0.4331340789794922,-0.5265157222747803,-0.01336604356765747
1771998724978902300,4.27090234375,-0.022177696228027344,-0.2172795832157135,-0.09793954342603683
1771998725007100000,4.299099853515625,-0.4341268539428711,0.01198965311050415,0.1856013983488083
1771998725025898200,4.317898193359375,-0.6814546585083008,0.09564769268035889,0.09386472404003143
1771998725044696600,4.336696533203125,0.02305316925048828,0.08323493599891663,-0.30039066076278687
1771998725063495000,4.355494873046875,0.2653236389160156,-0.07491230964660645,-0.3563568592071533
1771998725082293200,4.374293212890625,0.19080638885498047,-0.04243764281272888,-0.0629836767911911
1771998725101091600,4.393091552734375,0.4073047637939453,0.14275652170181274,0.05087575316429138
1771998725119890000,4.411889892578125,0.5971450805664062,-0.10033750534057617,-0.05200739949941635
1771998725138688300,4.430688232421875,1.188889503479004,-0.3141605257987976,0.06314973533153534
1771998725157486600,4.449486572265625,1.6624698638916016,0.07858818769454956,-0.2772136330604553
1771998725176285000,4.468284912109375,2.0886430740356445,0.4531856179237366,-0.878816545009613
1771998725195083300,4.487083251953125,2.486286163330078,0.7684066295623779,-0.8638652563095093
1771998725213881600,4.505881591796875,2.2641639709472656,0.7722371816635132,-0.5782163143157959
1771998725232680000,4.524679931640625,1.9318275451660156,0.5550601482391357,-0.5279321670532227
1771998725251478000,4.54347802734375,1.7467279434204102,-0.19606825709342957,-0.5170566439628601
1771998725270276400,4.5622763671875,1.2017278671264648,-0.5784102082252502,-0.8900266885757446
1771998725289074700,4.58107470703125,0.12955188751220703,-0.5277624130249023,-1.0032414197921753
1771998725307873000,4.599873046875,-0.9686307907104492,-0.028945282101631165,-1.5036873817443848
1771998725326671400,4.61867138671875,-1.5564041137695312,0.03276827931404114,-1.6143943071365356
1771998725345469700,4.6374697265625,-1.7804651260375977,0.06847652792930603,-1.5418182611465454
1771998725364268000,4.65626806640625,-1.483769416809082,0.002631545066833496,-1.1444623470306396
1771998725383066400,4.67506640625,-0.7398090362548828,0.17987489700317383,-0.8393679261207581
1771998725401864700,4.69386474609375,-1.0415534973144531,0.6634226441383362,-0.5809432864189148
1771998725420663000,4.7126630859375,-1.4395723342895508,0.9481927752494812,-0.3908109664916992
1771998725439461400,4.73146142578125,-1.339559555053711,0.6226353049278259,-0.46194183826446533
1771998725458259700,4.750259765625,-1.000138282775879,0.09993737936019897,-0.5073750019073486
1771998725477058000,4.76905810546875,-0.7756643295288086,-0.20979219675064087,-0.5083528757095337
1771998725495856400,4.7878564453125,-0.3461751937866211,-0.18894782662391663,-0.3150830864906311
1771998725514654700,4.80665478515625,0.08302021026611328,-0.055549025535583496,-0.14082688093185425
1771998725533453000,4.825453125,0.4127368927001953,0.03401699662208557,-0.11733023077249527
1771998725552251400,4.84425146484375,0.22665786743164062,-0.053600460290908813,-0.14853091537952423
1771998725571049700,4.8630498046875,-0.104095458984375,-0.16012972593307495,0.004415273666381836
1771998725589848000,4.88184814453125,-0.29612159729003906,-0.2618388235569,0.20858845114707947
1771998725608646400,4.900646484375,-0.4709968566894531,-0.22901171445846558,0.23167170584201813
1771998725627444700,4.91944482421875,-0.6286182403564453,-0.03168588876724243,0.12561726570129395
1771998725646243000,4.9382431640625,-0.5020570755004883,-0.018357038497924805,0.19681617617607117
1771998725665041400,4.95704150390625,-0.4153127670288086,0.03639191389083862,0.42483076453208923
1771998725683839700,4.97583984375,-0.4158439636230469,0.2593211531639099,0.5767674446105957
1771998725702638000,4.99463818359375,-0.5184841156005859,0.4009217321872711,0.4531520903110504
1771998725721436400,5.0134365234375,-0.3290548324584961,0.26295000314712524,0.22095169126987457
1771998725740234800,5.03223486328125,-0.13611888885498047,0.15262466669082642,0.5648590326309204
1771998725759033000,5.051033203125,-0.1932811737060547,0.13547593355178833,1.023564338684082
1771998725777831400,5.06983154296875,-0.3342885971069336,0.4546143412590027,0.9586237668991089
1771998725796629800,5.088629638671875,-0.12003135681152344,0.8263002038002014,0.5705514550209045
1771998725824827400,5.116827392578125,-0.011554718017578125,0.8026486039161682,0.41986989974975586
1771998725843625700,5.135625732421875,-0.09484100341796875,0.5654720067977905,0.5382730960845947
1771998725862424000,5.154424072265625,0.2062673568725586,0.08252012729644775,0.6758626699447632
1771998725881222400,5.173222412109375,1.4723749160766602,-0.05270493030548096,0.6400421857833862
1771998725900020700,5.192020751953125,1.9891719818115234,0.7092211842536926,-0.14279602468013763
1771998725918819000,5.210819091796875,0.7174911499023438,0.8377450704574585,-0.5866819620132446
1771998725937617400,5.229617431640625,0.2785501480102539,0.3091147840023041,-0.45877352356910706
1771998725956415700,5.248415771484375,0.3021583557128906,-0.2791387438774109,-0.3245775103569031
1771998725975214000,5.267214111328125,0.2868337631225586,-0.35325294733047485,-0.3520675301551819
1771998725994012400,5.286012451171875,0.5254392623901367,0.4205503463745117,-0.7315142750740051
1771998726012810800,5.304810791015625,0.10207271575927734,0.9722089171409607,-0.5560203194618225
1771998726031609000,5.323609130859375,0.6349163055419922,0.997094452381134,-0.2561570405960083
1771998726050407400,5.342407470703125,0.6141242980957031,0.9944589734077454,-0.4613777697086334
1771998726069205800,5.361205810546875,-0.18463611602783203,0.7175559401512146,-1.230992317199707
1771998726088004000,5.380004150390625,-0.47371768951416016,0.436516672372818,-2.059141159057617
1771998726106802400,5.398802490234375,-0.15498924255371094,0.14243152737617493,-2.7296793460845947
1771998726125600800,5.417600830078125,-0.7570114135742188,-0.11869722604751587,-2.7147064208984375
1771998726144399000,5.436399169921875,-1.2349653244018555,-0.4323733448982239,-2.691258430480957
1771998726163197200,5.455197265625,-0.8910341262817383,-0.879233717918396,-2.709679126739502
1771998726181995500,5.47399560546875,-0.5328359603881836,-1.2425525188446045,-2.7775633335113525
1771998726200793900,5.4927939453125,-0.027863502502441406,-1.1011803150177002,-2.096829414367676
1771998726219592200,5.51159228515625,-0.06318187713623047,-0.6044631004333496,-1.2737948894500732
1771998726238390500,5.530390625,-0.4325895309448242,-0.32149848341941833,-0.8721143007278442
1771998726257188900,5.54918896484375,-0.527745246887207,-0.20564985275268555,-0.9700050354003906
1771998726275987200,5.5679873046875,-0.575653076171875,-0.2643444240093231,-1.0152082443237305
1771998726294785500,5.58678564453125,-0.27606678009033203,-0.4200253486633301,-1.0448815822601318
1771998726313583900,5.605583984375,-0.14974021911621094,-0.5271561741828918,-1.1045033931732178
1771998726341781500,5.633781494140625,-0.6016845703125,-0.6063219308853149,-1.2516316175460815
1771998726360579800,5.652579833984375,-0.6488323211669922,-0.6853876113891602,-1.2365859746932983
1771998726398176500,5.690176513671875,-0.5764656066894531,-1.0163618326187134,-0.5645639300346375
1771998726416974800,5.708974853515625,-0.6926326751708984,-0.9429585933685303,-0.3657793700695038
1771998726435773200,5.727773193359375,-0.7997684478759766,-0.667585015296936,-0.10897038877010345
1771998726454571500,5.746571533203125,-0.6297454833984375,-0.2614150941371918,0.21941235661506653
1771998726473369900,5.765369873046875,-1.166426658630371,-0.133999764919281,0.580308735370636
1771998726492168200,5.784168212890625,-1.071599006652832,-0.2365368902683258,0.5102991461753845
1771998726510966500,5.802966552734375,-0.4390544891357422,-0.04304620623588562,0.2534773051738739
1771998726529764900,5.821764892578125,-0.07671928405761719,0.2891344130039215,0.23896579444408417
1771998726548563200,5.840563232421875,-0.43623924255371094,0.47996628284454346,0.2953724265098572
1771998726567361500,5.859361572265625,-0.5033416748046875,-0.0015804767608642578,0.24202671647071838
1771998726586159900,5.878159912109375,0.1578521728515625,-0.5908191204071045,-0.010029271245002747
1771998726604958200,5.896958251953125,0.3098878860473633,-0.7930739521980286,-0.6133481860160828
1771998726623756500,5.915756591796875,0.07486820220947266,-0.9297180771827698,-0.9945341348648071
1771998726642555000,5.934554931640625,0.09619998931884766,-0.7943873405456543,-0.4307733178138733
1771998726661353200,5.953353271484375,-0.02301788330078125,-0.6852174997329712,-0.08941477537155151
1771998726680151600,5.972151611328125,0.2923126220703125,-0.7514160871505737,-0.042894065380096436
1771998726698950000,5.990949951171875,0.5963716506958008,-0.3367604613304138,0.6432710289955139
1771998726717748200,6.009748291015625,0.7642974853515625,0.0140819251537323,1.6560490131378174
1771998726736546600,6.028546630859375,1.4279518127441406,0.29633602499961853,1.3309780359268188
1771998726755345000,6.047344970703125,1.709977149963379,0.45301780104637146,0.16224054992198944
1771998726774143200,6.066143310546875,1.5153961181640625,1.1727356910705566,-0.1637142300605774
1771998726792941600,6.084941650390625,1.5095109939575195,1.4129152297973633,-0.6250389814376831
1771998726811740000,6.103739990234375,1.1985845565795898,0.5419368147850037,-0.7032371759414673
1771998726830538200,6.122538330078125,0.9740266799926758,-0.4286353290081024,-0.5955238938331604
1771998726849336600,6.141336669921875,0.8123722076416016,-0.3711509108543396,-1.2611243724822998
1771998726868135000,6.160135009765625,0.4318246841430664,0.14440017938613892,-2.3661561012268066
1771998726886933200,6.178933349609375,-0.29996585845947266,0.5097276568412781,-2.7266790866851807
1771998726905731600,6.197731689453125,-1.1593475341796875,0.2771042585372925,-1.935289740562439
1771998726924530000,6.216530029296875,-0.8780412673950195,0.14836549758911133,-1.3758339881896973
1771998726943328300,6.235328369140625,-0.58795166015625,0.036404162645339966,-1.1782000064849854
1771998726962126600,6.254126708984375,-0.38733673095703125,0.21979409456253052,-1.0189855098724365
1771998726980925000,6.272925048828125,-0.7617950439453125,0.4267013669013977,-0.5584982633590698
1771998726999723300,6.29172314453125,-0.8681297302246094,0.46500083804130554,-0.7714496850967407
1771998727018521600,6.310521484375,-0.3576335906982422,0.11794814467430115,-1.1188730001449585
1771998727037320000,6.32931982421875,0.18741130828857422,-0.019030451774597168,-1.1855909824371338
1771998727056118300,6.3481181640625,-0.09140777587890625,0.05106601119041443,-0.9813663959503174
1771998727074916400,6.366916259765625,0.04475975036621094,0.03192242980003357,-1.132020115852356
1771998727093714700,6.385714599609375,0.15186119079589844,0.005231529474258423,-0.9125205278396606
1771998727112513000,6.404512939453125,0.3833150863647461,-0.24049553275108337,-0.2060667872428894
1771998727131311400,6.423311279296875,0.32166290283203125,-0.19069257378578186,0.04985076189041138
1771998727150109700,6.442109619140625,-0.172821044921875,-0.18129685521125793,0.09032934904098511
1771998727168908000,6.460907958984375,-0.019527435302734375,-0.23072314262390137,-0.28384098410606384
1771998727187706400,6.479706298828125,-0.044373512268066406,-0.3232279121875763,-0.0811997652053833
1771998727206504700,6.498504638671875,-0.5411033630371094,-0.30008426308631897,0.5473271012306213
1771998727225303000,6.517302978515625,-0.6948757171630859,0.04955625534057617,0.6352612376213074
1771998727244101400,6.536101318359375,-0.8587779998779297,0.09674981236457825,0.7118825912475586
1771998727262899700,6.554899658203125,-0.7555913925170898,-0.03499838709831238,0.8536010980606079
1771998727281698000,6.573697998046875,-0.3811511993408203,0.08132922649383545,0.756069540977478
1771998727300496400,6.592496337890625,-0.27423667907714844,0.21528929471969604,0.5145193338394165
1771998727319294700,6.611294677734375,-0.5361852645874023,0.1756420135498047,0.28421711921691895
1771998727338093000,6.630093017578125,-0.6157855987548828,0.25116661190986633,0.3916507959365845
1771998727356891400,6.648891357421875,-0.42151546478271484,0.35000890493392944,0.7661088705062866
1771998727375689700,6.667689697265625,-0.22713661193847656,0.3425733745098114,0.6091005802154541
1771998727394488000,6.686488037109375,0.4153604507446289,-0.019846975803375244,0.31166017055511475
1771998727413286400,6.705286376953125,0.9636421203613281,0.16796773672103882,0.16404512524604797
1771998727432084700,6.724084716796875,0.8529157638549805,0.9428082704544067,-0.17282286286354065
1771998727450883000,6.742883056640625,-0.06583595275878906,0.9015511274337769,-0.5089741349220276
1771998727469681400,6.761681396484375,-0.2503957748413086,0.3514955937862396,-0.3855876624584198
1771998727488479700,6.780479736328125,0.14600658416748047,0.2340976893901825,-0.18473774194717407
1771998727507278000,6.799278076171875,0.2605113983154297,0.2992566227912903,-0.11965450644493103
1771998727526076400,6.818076416015625,0.4033069610595703,0.3409712016582489,0.024498730897903442
1771998727544874800,6.836874755859375,0.07705307006835938,0.1906932294368744,0.4965478777885437
1771998727563673000,6.855673095703125,0.21059036254882812,0.24248573184013367,0.6356587409973145
1771998727582471400,6.874471435546875,0.3408546447753906,0.8221617937088013,-0.21782878041267395
1771998727601269500,6.89326953125,-0.008749961853027344,0.6495702266693115,-0.9318661093711853
1771998727620067800,6.91206787109375,0.4492788314819336,0.151357039809227,-1.3584580421447754
1771998727638866200,6.9308662109375,0.4781837463378906,-0.20280250906944275,-1.4862138032913208
1771998727657664500,6.94966455078125,0.14740276336669922,-0.02897128462791443,-1.7161896228790283
1771998727676462800,6.968462890625,-0.2043905258178711,0.18695248663425446,-2.2491118907928467
1771998727695261200,6.98726123046875,-0.17402172088623047,-0.08532668650150299,-2.318467378616333
1771998727714059500,7.0060595703125,-0.3565225601196289,-0.5024131536483765,-1.9303381443023682
1771998727732857900,7.02485791015625,-0.41471195220947266,-0.8357649445533752,-1.5311048030853271
1771998727751656200,7.04365625,-0.6596975326538086,-0.9776592254638672,-1.0187366008758545
1771998727770454500,7.06245458984375,-0.4063119888305664,-1.070746660232544,-0.7320811152458191
1771998727789252900,7.0812529296875,-0.02174091339111328,-0.8604685068130493,-0.999641478061676
1771998727808051200,7.10005126953125,-0.06853580474853516,-0.47584131360054016,-0.9772295951843262
1771998727826849500,7.118849609375,-0.31901073455810547,0.07596851885318756,-0.5324603915214539
1771998727845648000,7.13764794921875,-0.10705280303955078,0.4472857117652893,-0.5367341041564941
1771998727864446200,7.1564462890625,-0.5177526473999023,0.16816742718219757,-0.8662657141685486
1771998727883244500,7.17524462890625,-0.824131965637207,-0.30133700370788574,-1.1910417079925537
1771998727902043000,7.19404296875,-0.3324165344238281,-0.7314701676368713,-0.9930742979049683
1771998727920841200,7.21284130859375,-0.22585582733154297,-1.0586849451065063,-0.7397075891494751
1771998727939639600,7.2316396484375,-0.10465049743652344,-0.9043909907341003,-0.9621804356575012
1771998727967837200,7.259837158203125,-0.4167652130126953,-0.24777516722679138,-0.9228599667549133
1771998727986635500,7.278635498046875,-0.6429977416992188,-0.08077052235603333,-0.7271630764007568
1771998728005433900,7.297433837890625,-0.7593679428100586,-0.16648852825164795,-0.43303096294403076
1771998728024232200,7.316232177734375,-0.5994100570678711,-0.26820865273475647,-0.2775208353996277
1771998728043030500,7.335030517578125,-0.7814350128173828,-0.09820747375488281,-0.032941028475761414
1771998728061828900,7.353828857421875,-0.9283657073974609,0.31303271651268005,0.13747981190681458
1771998728080627200,7.372627197265625,-0.9292106628417969,0.1308150440454483,0.06757938861846924
1771998728099425500,7.391425537109375,-0.5029487609863281,-0.1354999542236328,0.3588486313819885
1771998728118224000,7.410223876953125,-0.3313865661621094,-0.11302289366722107,0.6863420605659485
1771998728137022200,7.429022216796875,-0.2154216766357422,0.13002359867095947,0.5728529095649719
1771998728155820500,7.447820556640625,0.14761829376220703,0.07326999306678772,0.35143011808395386
1771998728174619000,7.466618896484375,0.14742088317871094,-0.2107624113559723,-0.10204362124204636
1771998728193417200,7.485417236328125,-0.27577877044677734,-0.418316125869751,-0.02606894075870514
1771998728212215600,7.504215576171875,-0.30016326904296875,-0.618300199508667,0.10598701238632202
1771998728231014000,7.523013916015625,-0.41481781005859375,-0.6952172517776489,0.37710386514663696
1771998728249812200,7.541812255859375,-0.22501277923583984,-0.4406520426273346,0.2999125123023987
1771998728268610600,7.560610595703125,0.18047428131103516,-0.018127501010894775,0.2932322025299072
1771998728287409000,7.579408935546875,0.6370840072631836,0.05343937873840332,0.22585928440093994
1771998728306207200,7.598207275390625,1.972945213317871,0.6007622480392456,-0.6230497360229492
1771998728325005600,7.617005615234375,2.2319250106811523,1.6726598739624023,-1.334228515625
1771998728353203000,7.645202880859375,1.378692626953125,1.6825628280639648,-1.0136668682098389
1771998728372001300,7.664001220703125,0.958409309387207,0.37258613109588623,-0.7479314804077148
1771998728390799600,7.682799560546875,0.5280923843383789,-0.8136920928955078,-0.7297755479812622
1771998728409598000,7.701597900390625,0.22779083251953125,-1.182753562927246,-0.9010769128799438
1771998728428396300,7.720396240234375,0.14307785034179688,-0.7909371852874756,-0.8224962949752808
1771998728447194600,7.739194580078125,0.054223060607910156,0.01709282398223877,-0.6838345527648926
1771998728465993000,7.757992919921875,0.043369293212890625,0.4360141158103943,-0.599657416343689
1771998728484791300,7.776791259765625,0.2748680114746094,0.7874913811683655,-0.5830420851707458
1771998728503589600,7.795589599609375,0.15743160247802734,1.3196399211883545,-0.4770028293132782
1771998728522388000,7.814387939453125,-0.2589883804321289,1.3208153247833252,-0.7208338379859924
1771998728541186300,7.833186279296875,-1.284531593322754,0.8056488037109375,-0.6705194711685181
1771998728569384000,7.861384033203125,-1.1678094863891602,-0.8139411807060242,-0.35866713523864746
1771998728588182300,7.880182373046875,-0.032698631286621094,-0.9561392664909363,-0.1319671869277954
1771998728606980600,7.898980712890625,1.4649572372436523,0.1040131151676178,-0.1932944506406784
1771998728625779000,7.917779052734375,0.9397745132446289,0.0945160984992981,0.000013023614883422852
1771998728644577300,7.936577392578125,0.30255699157714844,-0.5363131761550903,0.6613380312919617
1771998728663375600,7.955375732421875,0.9145126342773438,-0.5426747798919678,0.562831699848175
1771998728682174000,7.974174072265625,1.0908823013305664,0.07603466510772705,0.15756934881210327
1771998728700972300,7.99297216796875,0.20943641662597656,0.5792914032936096,-0.4419832229614258
1771998728719770600,8.0117705078125,-0.9617452621459961,0.2818714678287506,-0.6571643948554993
1771998728738569000,8.03056884765625,-1.6265830993652344,-0.2786448895931244,-0.3230825364589691
1771998728766766300,8.058766357421876,-1.510054588317871,-0.20324331521987915,0.499887079000473
1771998728785564700,8.077564697265625,-1.2720165252685547,0.05935871601104736,0.5582964420318604
1771998728804363000,8.096363037109375,-1.6246137619018555,0.2077547013759613,0.7217072248458862
1771998728823161300,8.115161376953125,-1.4465312957763672,0.29150310158729553,0.8995062708854675
1771998728841959700,8.133959716796875,-0.8456287384033203,0.5491117238998413,0.9363418817520142
1771998728860758000,8.152758056640625,-0.5924711227416992,0.7794719934463501,0.6573668122291565
1771998728879556400,8.171556396484375,-0.7826642990112305,0.7209289073944092,0.4676433801651001
1771998728898354700,8.190354736328125,-1.1355485916137695,0.3464418053627014,0.5164892077445984
1771998728917153000,8.209153076171875,-0.8930940628051758,0.08546033501625061,0.6456917524337769
1771998728935951400,8.227951416015625,-0.4454479217529297,0.14909404516220093,0.3263711929321289
1771998728954749700,8.246749755859375,0.2928190231323242,0.10300400853157043,0.4512774646282196
1771998728973548000,8.265548095703124,1.7214765548706055,0.5194185376167297,0.3039374053478241
1771998728992346400,8.284346435546874,1.470292091369629,1.432232141494751,-0.676629364490509
1771998729011144700,8.303144775390624,0.03246021270751953,0.6035641431808472,-1.6023024320602417
1771998729029943000,8.321943115234374,0.31677818298339844,-0.4338439106941223,-1.233073353767395
1771998729048741400,8.340741455078126,0.23391056060791016,-0.7701089382171631,-0.3548070788383484
1771998729067539700,8.359539794921876,0.16825294494628906,-0.27631643414497375,0.2154732495546341
1771998729086338000,8.378338134765626,0.46190357208251953,0.17274489998817444,0.3747524321079254
1771998729105136400,8.397136474609376,0.6753005981445312,0.5672442317008972,0.5831112265586853
1771998729123934700,8.415934814453125,0.5494365692138672,0.7246187329292297,0.7191548347473145
1771998729142733000,8.434733154296875,0.5376214981079102,0.4163370132446289,0.39198607206344604
1771998729161531400,8.453531494140625,0.6400613784790039,0.10675328969955444,-0.14960932731628418
1771998729180329700,8.472329833984375,0.6576118469238281,0.3272266983985901,-0.4437897801399231
1771998729199128000,8.491128173828125,0.1316547393798828,0.7585324048995972,-0.941141664981842
1771998729217926400,8.509926513671875,-0.3595914840698242,0.4150794744491577,-1.806296944618225
1771998729246123800,8.538123779296875,0.06267642974853516,-0.48333343863487244,-2.6872317790985107
1771998729264922000,8.556922119140625,-0.011660575866699219,-0.9610785245895386,-2.3905446529388428
1771998729283720400,8.575720458984375,0.13396263122558594,-1.0303744077682495,-1.611219048500061
1771998729302518800,8.594518798828124,0.4308748245239258,-1.11741304397583,-0.8893232345581055
1771998729321317000,8.613317138671874,0.1449604034423828,-1.267682433128357,-0.6337311267852783
1771998729349514800,8.6415146484375,-0.4633951187133789,-0.6561148762702942,-0.7327210903167725
1771998729368313000,8.66031298828125,-0.19052410125732422,-0.09850427508354187,-0.6660508513450623
1771998729387111400,8.679111328125,-0.10142135620117188,0.10710016638040543,-0.7619954347610474
1771998729405909800,8.69790966796875,-0.4487924575805664,-0.11149603128433228,-0.9244903326034546
1771998729424708000,8.7167080078125,-0.5204582214355469,-0.2967795729637146,-1.0333306789398193
1771998729443506400,8.73550634765625,-0.5851459503173828,-0.7837235927581787,-1.1514990329742432
1771998729462304800,8.7543046875,-0.010327339172363281,-1.0847558975219727,-1.0969010591506958
1771998729490502400,8.78250244140625,0.45173168182373047,-0.7065327763557434,-0.6146238446235657
1771998729509300700,8.80130078125,0.2618846893310547,-0.5400141477584839,-0.17305970191955566
1771998729528099000,8.82009912109375,-0.10760879516601562,-0.5093010067939758,0.03291533887386322
1771998729546897400,8.8388974609375,-0.5925216674804688,-0.7389142513275146,0.07891243696212769
1771998729565695700,8.85769580078125,-0.9395208358764648,-0.8197554349899292,0.024956516921520233
1771998729584494000,8.876494140625,-1.3737897872924805,-0.6449252367019653,0.19768185913562775
1771998729603292400,8.89529248046875,-1.8711624145507812,-0.5733999013900757,0.4921708405017853
1771998729622090800,8.9140908203125,-2.011852741241455,-0.5694112777709961,0.25923216342926025
1771998729640889000,8.93288916015625,-1.5945405960083008,-0.5450236797332764,0.03375254571437836
1771998729659687400,8.9516875,-0.8140716552734375,-0.2866692543029785,0.0576641783118248
1771998729687884800,8.979884765625,-0.48455810546875,0.8239041566848755,0.2878611087799072
1771998729706683100,8.99868310546875,-0.5539951324462891,0.7189111113548279,0.5459950566291809
1771998729725481500,9.0174814453125,-0.5663242340087891,0.09168240427970886,1.0341945886611938
1771998729744279800,9.03627978515625,-1.0216598510742188,-0.730384349822998,1.1347479820251465
1771998729763078100,9.055078125,-0.6180572509765625,-1.1819398403167725,1.0366497039794922
1771998729781876500,9.07387646484375,-0.021022796630859375,-0.9626813530921936,0.8168683648109436
1771998729800674800,9.0926748046875,0.8057012557983398,-0.1301206350326538,0.4455209970474243
1771998729828872400,9.12087255859375,1.5813350677490234,1.7485740184783936,-0.5776101350784302
1771998729847670800,9.1396708984375,1.9129791259765625,1.6116361618041992,-1.282889485359192
1771998729866469000,9.15846923828125,2.786334991455078,1.1985952854156494,-1.609850525856018
1771998729885267500,9.177267333984375,2.6226205825805664,0.7051973938941956,-1.559240698814392
1771998729904065800,9.196065673828125,1.7526025772094727,0.20010314881801605,-1.3587629795074463
1771998729922864000,9.214864013671875,1.1594839096069336,-0.28000694513320923,-1.910058617591858
1771998729941662500,9.233662353515625,0.5188226699829102,-0.42166316509246826,-2.122284412384033
1771998729960460800,9.252460693359374,-0.1255483627319336,-0.18372637033462524,-1.4707248210906982
1771998729979259000,9.2712587890625,-0.10951614379882812,0.1306292563676834,-0.7272252440452576
1771998730007456500,9.29945654296875,0.31372642517089844,-0.09583553671836853,-0.650681734085083
1771998730026254800,9.3182548828125,0.14754104614257812,0.18022139370441437,-0.9703875780105591
1771998730045053200,9.33705322265625,-0.42067432403564453,0.3669617176055908,-0.7806993722915649
1771998730063851500,9.3558515625,-0.658055305480957,0.17329372465610504,-0.6995087265968323
1771998730082649900,9.37464990234375,-0.41808128356933594,-0.37694212794303894,-0.6318509578704834
1771998730101448200,9.3934482421875,0.04188823699951172,-0.6084347367286682,-0.6511021852493286
1771998730120246500,9.41224658203125,0.15155982971191406,-0.2794419825077057,-0.33559471368789673
1771998730139044900,9.431044921875,0.1085500717163086,0.04093372821807861,-0.17370754480361938
1771998730167242500,9.459242431640625,-0.43889427185058594,-0.220811128616333,-0.1529802680015564
1771998730186040800,9.478040771484375,-0.33371448516845703,-0.6784981489181519,-0.07212987542152405
1771998730204839200,9.496839111328125,-0.28902626037597656,-0.8539189100265503,0.04361218214035034
1771998730223637500,9.515637451171875,-0.2413167953491211,-0.8036684989929199,0.1331612467765808
1771998730242435800,9.534435791015625,-0.2171182632446289,-0.5374523401260376,0.10265681147575378
1771998730261234200,9.553234130859375,-0.4851093292236328,-0.1494303047657013,0.2508155107498169
1771998730280032500,9.572032470703125,-0.6489086151123047,-0.044874221086502075,0.6208435297012329
1771998730298830800,9.590830810546874,-0.6284103393554688,-0.09999307990074158,0.6724971532821655
1771998730317629200,9.609629150390624,-0.35690975189208984,-0.1048123836517334,0.6452974081039429
1771998730336427500,9.628427490234374,-0.1598062515258789,0.02960631251335144,0.8891623616218567
1771998730355225900,9.647225830078124,-0.07536506652832031,0.15401428937911987,1.288281798362732
1771998730374024200,9.666024169921876,0.051357269287109375,0.2984771132469177,1.2943366765975952
1771998730392822500,9.684822509765626,0.1288013458251953,0.32765865325927734,1.130325198173523
1771998730411620900,9.703620849609376,0.3143310546875,0.24387061595916748,1.0488988161087036
1771998730430419200,9.722419189453126,0.28376102447509766,0.15797758102416992,1.1987192630767822
1771998730449217500,9.741217529296875,0.0951852798461914,0.2246786653995514,1.1275405883789062
1771998730468015900,9.760015869140625,0.14111042022705078,0.29659727215766907,0.9223505258560181
1771998730486814200,9.778814208984375,0.17423629760742188,0.36977192759513855,0.5793982744216919
1771998730505612500,9.797612548828125,0.6119422912597656,0.18882828950881958,0.42706379294395447
1771998730524411000,9.816410888671875,1.2873430252075195,0.5581976771354675,0.3013848662376404
1771998730543209200,9.835209228515625,0.6872119903564453,0.8948554992675781,-0.04999862611293793
1771998730562007600,9.854007568359375,-0.12180423736572266,0.4833545684814453,-0.38053643703460693
1771998730580806000,9.872805908203125,-0.12341976165771484,0.18039551377296448,-0.4349173307418823
1771998730599604200,9.891604248046875,-0.08955955505371094,0.09134870767593384,-0.2522730827331543
1771998730618402600,9.910402587890625,-0.23635482788085938,0.4875604212284088,-0.10268160700798035
1771998730637201000,9.929200927734374,-0.8331918716430664,0.6408485174179077,0.06712999939918518
1771998730655999200,9.947999267578124,-1.0492095947265625,0.48561644554138184,0.28570955991744995
1771998730674797600,9.966797607421874,-0.6741647720336914,0.1616247296333313,0.11907143145799637
1771998730693596000,9.985595947265624,-0.11368083953857422,0.12391167879104614,-0.4315033257007599
1771998730712394200,10.004394287109376,-0.19671630859375,0.3372851014137268,-0.5886874198913574
1771998730731192600,10.023192626953126,-0.050774574279785156,0.4807626008987427,-0.3776281177997589
1771998730749991000,10.041990966796876,0.22268390655517578,0.3830595016479492,-0.42667901515960693
1771998730768789200,10.060789306640626,0.3381204605102539,0.09028297662734985,-1.000932216644287
1771998730787587600,10.079587646484375,0.657313346862793,-0.39896348118782043,-1.2275073528289795
1771998730806386000,10.098385986328125,0.7302961349487305,-0.5044233202934265,-0.9986198544502258
1771998730825184300,10.117184326171875,0.03196907043457031,-0.23158222436904907,-0.9582211971282959
1771998730853381600,10.145381591796875,-0.5241355895996094,-0.33153560757637024,-0.851879894733429
1771998730872180000,10.164179931640625,-0.685389518737793,-0.44477522373199463,-0.8888227939605713
1771998730890978300,10.182978271484375,-1.0823736190795898,-0.6837977170944214,-0.9836209416389465
1771998730909776600,10.201776611328125,-0.7437210083007812,-0.7863873243331909,-1.3404603004455566
1771998730928575000,10.220574951171875,0.19924259185791016,-0.6922752261161804,-1.2466914653778076
1771998730947373300,10.239373291015625,0.42049694061279297,-0.2082430124282837,-0.7819451689720154
1771998730966171600,10.258171630859374,0.0759124755859375,-0.08572906255722046,-0.49508076906204224
1771998730994369300,10.286369384765624,-0.24880218505859375,-0.6296025514602661,-0.3503236770629883
1771998731013167600,10.305167724609374,-0.0000095367431640625,-0.932793915271759,-0.3722081184387207
1771998731031966000,10.323966064453124,0.28530311584472656,-0.9439123868942261,-0.42315083742141724
1771998731050764300,10.342764404296876,0.32808399200439453,-0.6631895303726196,-0.4379119575023651
1771998731069562600,10.361562744140626,-0.29154396057128906,-0.538916289806366,-0.22149918973445892
1771998731088361000,10.38036083984375,-0.7389869689941406,-0.48228684067726135,-0.08867397904396057
1771998731107159300,10.3991591796875,-0.9010505676269531,-0.49827197194099426,-0.03806857392191887
1771998731125957600,10.41795751953125,-0.6275224685668945,-0.4845981299877167,-0.21574433147907257
1771998731144756000,10.436755859375,-0.5384330749511719,-0.22914466261863708,-0.09222323447465897
1771998731163554300,10.45555419921875,-0.4942770004272461,0.062473028898239136,0.31097015738487244
1771998731182352600,10.4743525390625,-0.8420181274414062,0.2740265727043152,0.36085212230682373
1771998731201151000,10.49315087890625,-0.8509273529052734,0.07186576724052429,-0.0213375985622406
1771998731219949300,10.51194921875,-0.6960020065307617,-0.16944408416748047,-0.09485097229480743
1771998731238747600,10.53074755859375,-0.2635536193847656,-0.1773664653301239,0.061368077993392944
1771998731257546000,10.5495458984375,-0.30283641815185547,-0.05547478795051575,0.32858264446258545
1771998731276344300,10.56834423828125,-0.30780029296875,-0.10007879137992859,0.26549309492111206
1771998731295142700,10.587142578125,0.12643814086914062,-0.23720839619636536,0.11595796048641205
1771998731313941000,10.60594091796875,0.0035276412963867188,-0.23542964458465576,0.3183256983757019
1771998731332739300,10.6247392578125,-0.017432212829589844,-0.4234035015106201,0.655123233795166
1771998731351537700,10.64353759765625,0.3943195343017578,-0.4708216190338135,0.6331074833869934
1771998731370336000,10.6623359375,0.19238567352294922,-0.22453004121780396,0.8225422501564026
1771998731389134300,10.68113427734375,0.11126422882080078,0.278701514005661,1.1919454336166382
1771998731407932700,10.6999326171875,0.4392108917236328,0.3909440040588379,1.3485774993896484
1771998731426731000,10.71873095703125,1.5510263442993164,0.027522683143615723,1.3099112510681152
1771998731445529300,10.737529296875,1.9211244583129883,0.6530787944793701,0.5025056004524231
1771998731464327700,10.75632763671875,1.2316007614135742,1.6924550533294678,-0.4938408434391022
1771998731483126000,10.7751259765625,0.8697671890258789,1.8490564823150635,-1.269595980644226
1771998731501924400,10.79392431640625,1.1632318496704102,0.9548196792602539,-1.8261184692382812
1771998731520722700,10.81272265625,1.2160663604736328,0.08607488870620728,-1.2933647632598877
1771998731539521000,10.83152099609375,0.9182577133178711,-0.6789693832397461,-0.776235044002533
1771998731558319400,10.8503193359375,0.3382530212402344,-1.1238089799880981,-1.316314697265625
1771998731577117700,10.86911767578125,-0.39232921600341797,-1.0533260107040405,-1.492231845855713
1771998731605315300,10.8973154296875,-0.7674427032470703,0.17544779181480408,-1.1026208400726318
1771998731624113700,10.91611376953125,-0.6551618576049805,0.8614984750747681,-0.8385348320007324
1771998731652311000,10.94431103515625,0.4351673126220703,1.150376558303833,-0.5193911790847778
1771998731671109400,10.963109375,0.3133430480957031,1.642988681793213,-0.3817995488643646
1771998731689907700,10.98190771484375,-0.5109739303588867,1.5474168062210083,-0.5385751724243164
1771998731708706300,11.000706298828124,-0.7249107360839844,0.7474744319915771,-0.8875880837440491
1771998731727504600,11.019504638671876,-0.0010547637939453125,-0.19682514667510986,-1.1848886013031006
1771998731746303000,11.038302978515626,0.46915245056152344,-0.6719202995300293,-1.0249652862548828
1771998731765101300,11.057101318359376,0.5181169509887695,-0.6635587811470032,-0.7095413208007812
1771998731783899600,11.075899658203125,0.6690177917480469,-0.5074144005775452,-0.5360479950904846
1771998731802698000,11.094697998046875,0.6443243026733398,-0.17995378375053406,-0.5537430047988892
1771998731821496300,11.113496337890625,0.3542051315307617,0.01264449954032898,-0.3014335632324219
1771998731840294400,11.13229443359375,0.12888526916503906,-0.01998397707939148,0.030851036310195923
1771998731859092700,11.1510927734375,-0.2811450958251953,-0.11602342128753662,0.20828324556350708
1771998731887290400,11.179290283203125,-0.6203708648681641,0.0887671709060669,0.1886495053768158
1771998731906088700,11.198088623046875,-1.0585498809814453,0.28817296028137207,0.12157812714576721
1771998731924887000,11.216886962890625,-1.1252079010009766,0.1648288369178772,0.33238333463668823
1771998731943685400,11.235685302734375,-0.8430900573730469,0.0050539374351501465,0.6653003096580505
1771998731962483700,11.254483642578125,-0.5966472625732422,0.15091446042060852,0.8585609197616577
1771998731981282000,11.273281982421874,-0.4825572967529297,0.4653792083263397,0.7149831056594849
1771998732000080400,11.292080322265624,-0.3407735824584961,0.6378552913665771,0.18893450498580933
1771998732018878700,11.310878662109374,-0.05191993713378906,0.6222130060195923,0.16515177488327026
1771998732047076400,11.339076416015626,-0.07726383209228516,0.418706476688385,0.35387206077575684
1771998732065874700,11.357874755859376,0.3329944610595703,-0.0250282883644104,0.6813664436340332
1771998732084673000,11.376673095703126,1.0575284957885742,-0.28600841760635376,0.6175419092178345
1771998732112870400,11.404870361328125,1.2879276275634766,0.7480863332748413,0.11590175330638885
1771998732131668700,11.423668701171875,0.3603382110595703,0.34281814098358154,-0.14078474044799805
1771998732159866400,11.451866455078125,0.5532751083374023,-0.5601832270622253,-0.5977125763893127
1771998732178664700,11.470664794921875,0.024582862854003906,-0.2535150647163391,-0.5614330172538757
1771998732206862000,11.498862060546875,-0.2674407958984375,0.3499184548854828,-0.40169453620910645
1771998732225660400,11.517660400390625,0.058798789978027344,0.4417498707771301,-0.5276396870613098
1771998732244458800,11.536458740234375,-0.1704692840576172,0.5860850811004639,-0.4476366639137268
1771998732263257000,11.555257080078125,-0.05907630920410156,0.5602177381515503,-0.5400099754333496
1771998732282055400,11.574055419921875,0.1072540283203125,0.44299575686454773,-0.49321413040161133
1771998732300853800,11.592853759765624,0.06639289855957031,0.22812879085540771,-0.24343806505203247
1771998732319652400,11.61165234375,-0.09405326843261719,0.12407934665679932,-0.28582656383514404
1771998732338450700,11.63045068359375,0.009069442749023438,-0.13829433917999268,-0.37151849269866943
1771998732357249000,11.6492490234375,0.15892505645751953,-0.2715304493904114,-0.7448955774307251
1771998732376047400,11.66804736328125,0.0651998519897461,-0.3542035222053528,-1.0298137664794922
1771998732394845700,11.686845703125,0.010463714599609375,-0.4242715835571289,-0.9129455089569092
1771998732413643800,11.705643798828126,-0.3204050064086914,-0.3177182078361511,-0.9613170027732849
1771998732432442000,11.724442138671876,-0.5329074859619141,-0.20886999368667603,-1.280414342880249
1771998732451240400,11.743240478515625,-0.8205881118774414,-0.3275032639503479,-1.325363278388977
1771998732470038800,11.762038818359375,-0.9646434783935547,-0.40768569707870483,-1.1380615234375
1771998732488837000,11.780837158203125,-0.8023853302001953,-0.38346123695373535,-1.0051027536392212
1771998732507635500,11.799635498046875,-0.6947517395019531,-0.28103530406951904,-0.7428818941116333
1771998732526433800,11.818433837890625,-0.39507007598876953,-0.3206673264503479,-0.7158993482589722
1771998732545232100,11.837232177734375,0.4062652587890625,-0.18130701780319214,-1.02097487449646
1771998732564030500,11.856030517578125,0.8387289047241211,0.0629318356513977,-1.2800259590148926
1771998732582828800,11.874828857421875,0.5543298721313477,-0.03274780511856079,-1.0590732097625732
1771998732601627400,11.89362744140625,0.3028583526611328,-0.3112793564796448,-0.6353307366371155
1771998732620425700,11.91242578125,0.32591915130615234,-0.7029215097427368,-0.3520627021789551
1771998732639224000,11.93122412109375,0.2518291473388672,-0.7609848380088806,-0.07258813083171844
1771998732658022400,11.9500224609375,0.013772010803222656,-0.6145592331886292,-0.21884159743785858
1771998732676820700,11.96882080078125,-0.0739450454711914,-0.5631909370422363,-0.4661422371864319
1771998732695619000,11.987619140625,-0.12410545349121094,-0.451862633228302,-0.5415546894073486
1771998732714417400,12.00641748046875,-0.3813304901123047,-0.37074124813079834,-0.5401973128318787
1771998732733215700,12.0252158203125,-0.7106533050537109,-0.36356157064437866,-0.2999536097049713
1771998732752014000,12.04401416015625,-1.087172508239746,-0.42396122217178345,0.07393011450767517
1771998732770812400,12.0628125,-1.2025394439697266,-0.5375516414642334,0.14576463401317596
1771998732789610800,12.08161083984375,-0.8302764892578125,-0.4400097727775574,0.08529578149318695
1771998732808409000,12.1004091796875,-0.519099235534668,-0.21409904956817627,0.0753958523273468
1771998732827207400,12.11920751953125,-0.3059368133544922,0.033869266510009766,0.2431921362876892
1771998732846005800,12.138005859375,-0.1835317611694336,0.1320229172706604,0.06577357649803162
1771998732864804000,12.15680419921875,-0.15257549285888672,0.03267085552215576,-0.05871385335922241
1771998732883602400,12.1756025390625,-0.08613109588623047,-0.07054346799850464,0.13620024919509888
1771998732902400800,12.19440087890625,0.14822769165039062,-0.20920515060424805,0.3700631856918335
1771998732921199000,12.21319921875,0.42397403717041016,-0.24125564098358154,0.37132853269577026
1771998732939997400,12.23199755859375,0.5809450149536133,-0.2267441749572754,0.2041250318288803
1771998732968194800,12.26019482421875,0.35869884490966797,-0.19526338577270508,0.2619413435459137
1771998732986993200,12.2789931640625,0.39044666290283203,-0.22759276628494263,0.44780170917510986
1771998733005791500,12.29779150390625,0.43234729766845703,-0.10371977090835571,0.5217658281326294
1771998733024589800,12.31658984375,0.2682638168334961,0.059368014335632324,0.7913463115692139
1771998733043388200,12.33538818359375,0.43479251861572266,0.15127032995224,1.0909148454666138
1771998733062186500,12.3541865234375,1.020857810974121,0.5074944496154785,0.7592808604240417
1771998733080985000,12.372985107421876,1.522618293762207,1.0711114406585693,-0.07027458399534225
1771998733109182500,12.401182373046876,0.7371320724487305,1.219506859779358,-0.518098771572113
1771998733127980800,12.419980712890625,0.4621419906616211,0.33136457204818726,-0.3905712366104126
1771998733146779100,12.438779052734375,0.9535503387451172,-0.6075692772865295,-0.015106769278645515
1771998733165577500,12.457577392578125,0.9946117401123047,-0.8465601801872253,0.1574615091085434
1771998733184375800,12.476375732421875,0.5964412689208984,-0.6768699884414673,0.3436681032180786
1771998733203174100,12.495174072265625,0.4756603240966797,-0.3825187683105469,0.12173923850059509
1771998733221972500,12.513972412109375,0.4588146209716797,0.09489798545837402,-0.6571779847145081
1771998733240770800,12.532770751953125,0.34729671478271484,0.6773531436920166,-1.140242099761963
1771998733259569200,12.551569091796875,0.18527603149414062,1.121685266494751,-1.4376981258392334
1771998733278367500,12.570367431640625,-0.3077373504638672,1.1003234386444092,-1.4934918880462646
1771998733297166000,12.589166015625,-0.6008996963500977,0.8283216953277588,-1.519977331161499
1771998733315964400,12.60796435546875,-0.9348659515380859,0.7548196315765381,-1.2673012018203735
1771998733334762800,12.6267626953125,-1.049264907836914,0.7213860154151917,-0.915449857711792
1771998733353561000,12.64556103515625,-0.6509799957275391,0.4774287939071655,-0.5775341987609863
1771998733372359400,12.664359375,-0.22630786895751953,0.34328317642211914,-0.5294833183288574
1771998733391157800,12.68315771484375,-0.07330036163330078,0.4365426301956177,-0.7292582392692566
1771998733409956000,12.7019560546875,-0.14241600036621094,0.564709484577179,-0.6675856113433838
1771998733428754400,12.72075439453125,-0.3658628463745117,0.5838110446929932,-0.4974480867385864
1771998733447552800,12.739552734375,-0.3908834457397461,0.3909565806388855,-0.5782408118247986
1771998733466351000,12.75835107421875,0.019852638244628906,0.20548737049102783,-0.6494168043136597
1771998733494548500,12.786548583984375,0.30240917205810547,0.3481540083885193,-0.24748064577579498
1771998733513346800,12.805346923828125,0.6355657577514648,0.4461100101470947,-0.07445196807384491
1771998733532145200,12.824145263671875,0.5926132202148438,0.42072343826293945,-0.037454307079315186
1771998733550943500,12.842943603515625,0.3352479934692383,0.39864057302474976,-0.025633923709392548
1771998733569741800,12.861741943359375,0.24226856231689453,0.30761128664016724,0.07322151958942413
1771998733588540200,12.8805400390625,-0.10822010040283203,0.09695780277252197,0.10603281855583191
1771998733607338500,12.89933837890625,-0.3947439193725586,-0.054793477058410645,0.13503533601760864
1771998733626136800,12.91813671875,-0.5235748291015625,-0.18204903602600098,0.30162298679351807
1771998733644935200,12.93693505859375,-0.371246337890625,-0.07548737525939941,0.4078540802001953
1771998733663733500,12.9557333984375,-0.19136333465576172,0.25723981857299805,0.4628142714500427
1771998733682531800,12.97453173828125,-0.16520404815673828,0.5276497602462769,0.598264217376709
1771998733701330200,12.993330078125,-0.11216926574707031,0.5948286056518555,0.6299165487289429
1771998733720128800,13.012128662109374,-0.27260684967041016,0.622433066368103,0.7339087724685669
1771998733738927000,13.030927001953126,-0.5224761962890625,0.6211177110671997,0.8827654123306274
1771998733757725400,13.049725341796876,-0.5399856567382812,0.546159029006958,0.8729243278503418
1771998733776523800,13.068523681640626,-0.3637580871582031,0.5360740423202515,1.005582571029663
1771998733795322000,13.087322021484376,-0.24138927459716797,0.5798400044441223,1.0367417335510254
1771998733814120400,13.106120361328125,-0.03231334686279297,0.5923945307731628,0.7652199864387512
1771998733832918800,13.124918701171875,0.4029684066772461,0.6881874799728394,0.5518549680709839
1771998733851717000,13.143717041015625,0.3113527297973633,0.5642203092575073,0.8755472898483276
1771998733870515500,13.162515380859375,0.48947620391845703,0.13494253158569336,1.0593236684799194
1771998733889313800,13.181313720703125,0.7946414947509766,0.204085111618042,0.9133924245834351
1771998733908112100,13.200112060546875,0.12426185607910156,0.5851324200630188,0.4123240113258362
1771998733926910500,13.218910400390625,-0.1678142547607422,0.430480420589447,-0.21011367440223694
1771998733945708800,13.237708740234375,0.31192684173583984,0.29790955781936646,-0.474487841129303
1771998733964507100,13.256507080078125,0.4116230010986328,0.6188264489173889,-0.5657213926315308
1771998733992704500,13.28470458984375,0.07494640350341797,0.8114837408065796,-0.45931321382522583
1771998734011502800,13.3035029296875,-0.2679595947265625,0.43760746717453003,-0.3245871365070343
1771998734030301200,13.32230126953125,-0.059978485107421875,0.10600489377975464,-0.15287449955940247
1771998734049099500,13.341099609375,0.09718513488769531,0.21291345357894897,-0.14941775798797607
1771998734067897900,13.35989794921875,-0.15041732788085938,0.35365092754364014,-0.5090853571891785
1771998734086696200,13.3786962890625,-0.22066211700439453,0.45483148097991943,-0.6557866334915161
1771998734105494800,13.397494873046876,0.06519412994384766,0.24931126832962036,-0.48749586939811707
1771998734124293000,13.416293212890626,0.5859203338623047,0.29567059874534607,-0.877680778503418
1771998734143091500,13.435091552734375,0.2553863525390625,0.3212552070617676,-1.3926700353622437
1771998734161889800,13.453889892578125,0.20265483856201172,-0.052463799715042114,-2.0163323879241943
1771998734180688100,13.472688232421875,0.30533599853515625,-0.4423436224460602,-2.331940174102783
1771998734199486500,13.491486572265625,0.2965049743652344,-0.6706336140632629,-2.248995065689087
1771998734218284800,13.510284912109375,-0.053101539611816406,-0.9071434140205383,-1.7657091617584229
1771998734237083100,13.529083251953125,-0.05991935729980469,-1.0204849243164062,-1.149122714996338
1771998734255881500,13.547881591796875,0.4115924835205078,-0.9448174238204956,-0.9623696804046631
1771998734274679800,13.5666796875,0.7189311981201172,-0.5207990407943726,-1.0566974878311157
1771998734293478100,13.58547802734375,0.7074165344238281,-0.023676961660385132,-0.9890573024749756
1771998734312276500,13.6042763671875,0.3424863815307617,0.21494996547698975,-0.7284830808639526
1771998734331074800,13.62307470703125,-0.2949066162109375,0.0755712240934372,-0.40298938751220703
1771998734349873200,13.641873046875,-0.24355220794677734,-0.1450103521347046,-0.7899186015129089
1771998734368671500,13.66067138671875,-0.29656982421875,-0.4038311243057251,-1.1140632629394531
1771998734387469800,13.6794697265625,-0.35885143280029297,-0.6087902188301086,-1.0089123249053955
1771998734406268200,13.69826806640625,-0.07903671264648438,-0.6972758769989014,-0.9027559161186218
1771998734425066500,13.71706640625,0.15177345275878906,-0.6046428680419922,-0.8647177219390869
1771998734443864800,13.73586474609375,0.11614990234375,-0.43073177337646484,-0.9656883478164673
1771998734462663200,13.7546630859375,-0.24633121490478516,-0.324218213558197,-0.801138699054718
1771998734490860800,13.78286083984375,-0.32697582244873047,-0.3245062232017517,-0.45899125933647156
1771998734509659100,13.8016591796875,-0.43128013610839844,-0.39161399006843567,-0.37623193860054016
1771998734528457500,13.82045751953125,-0.587834358215332,-0.3156464397907257,-0.4278753697872162
1771998734547255800,13.839255859375,-0.651031494140625,-0.14315390586853027,-0.48528438806533813
1771998734566054100,13.85805419921875,-0.47458744049072266,-0.0710265040397644,-0.5387054681777954
1771998734584852500,13.8768525390625,-0.3489866256713867,-0.21287155151367188,-0.5480661988258362
1771998734603650800,13.89565087890625,0.045790672302246094,-0.3269726037979126,-0.3250306248664856
1771998734622449200,13.91444921875,0.0584259033203125,-0.3443973660469055,-0.37451326847076416
1771998734641247500,13.93324755859375,-0.2320108413696289,-0.4527088403701782,-0.44408345222473145
1771998734660045800,13.9520458984375,-0.22103118896484375,-0.5502649545669556,-0.3441794216632843
1771998734678844200,13.97084423828125,-0.1701679229736328,-0.49271953105926514,-0.39894670248031616
1771998734697642500,13.989642578125,-0.1103982925415039,-0.3111873269081116,-0.44680309295654297
1771998734716440800,14.00844091796875,-0.08919620513916016,-0.27493953704833984,-0.3789231479167938
1771998734735239200,14.0272392578125,-0.036246299743652344,-0.47145313024520874,-0.38649627566337585
1771998734754037500,14.04603759765625,0.1316976547241211,-0.63993901014328,-0.2233184576034546
1771998734772836000,14.064836181640626,0.019227027893066406,-0.6649353504180908,0.07524135708808899
1771998734791634400,14.083634521484376,0.12261199951171875,-0.4964621663093567,0.08381125330924988
1771998734810432800,14.102432861328126,0.09430217742919922,-0.27108293771743774,-0.11427682638168335
1771998734829231000,14.121231201171875,-0.1791677474975586,-0.1724931001663208,-0.22518211603164673
1771998734848029400,14.140029541015625,-0.29765796661376953,-0.04973334074020386,-0.3724557161331177
1771998734866827800,14.158827880859375,-0.32661914825439453,0.033442556858062744,-0.48326045274734497
1771998734885626000,14.177626220703125,-0.33864307403564453,-0.03708547353744507,-0.44063007831573486
1771998734904424200,14.196424072265625,-0.2837247848510742,-0.2116084098815918,-0.47932174801826477
1771998734923222500,14.215222412109375,-0.01253509521484375,-0.44277817010879517,-0.4282399117946625
1771998734942021000,14.234021240234375,0.3418750762939453,-0.240655779838562,-0.37058204412460327
1771998734960819500,14.2528193359375,0.7573890686035156,0.18009424209594727,-0.08837395906448364
1771998734979617800,14.27161767578125,0.34906959533691406,0.547614574432373,0.09407669305801392
1771998734998416100,14.290416015625,-0.1963520050048828,0.41021013259887695,0.29023438692092896
1771998735017214500,14.30921435546875,0.048809051513671875,0.04135769605636597,0.19988402724266052
1771998735036012800,14.3280126953125,0.41434574127197266,-0.1390465497970581,-0.13268524408340454
1771998735054811100,14.34681103515625,0.18307971954345703,0.1569724678993225,-0.31311482191085815
1771998735073609500,14.365609375,-0.2589406967163086,0.49200040102005005,-0.3412078022956848
1771998735092407800,14.38440771484375,-0.3501701354980469,0.5115393996238708,0.007968246936798096
1771998735111206100,14.4032060546875,0.13583087921142578,0.26531481742858887,-0.08395403623580933
1771998735130004500,14.42200439453125,0.41526317596435547,0.4413154721260071,-0.5082530975341797
1771998735148802800,14.440802734375,0.08672046661376953,0.5240287780761719,-0.5408283472061157
1771998735167601200,14.45960107421875,-0.2492074966430664,0.326844185590744,-0.27380311489105225
1771998735186399500,14.4783994140625,-0.09503459930419922,-0.10772943496704102,0.1224181056022644
1771998735205197800,14.49719775390625,0.2478342056274414,-0.07434868812561035,0.13270074129104614
1771998735223996200,14.51599609375,0.11532115936279297,0.25634920597076416,0.21446877717971802
1771998735242794500,14.53479443359375,-0.0005826950073242188,0.43376582860946655,0.17963069677352905
1771998735261593000,14.553593017578125,-0.1350870132446289,0.4592145085334778,0.2919517457485199
1771998735280391400,14.572391357421875,-0.30591297149658203,0.5110097527503967,0.3564639687538147
1771998735299189500,14.591189453125,-0.3949422836303711,0.6044574975967407,0.3471335470676422
1771998735327387100,14.61938720703125,0.23585891723632812,0.4773109555244446,0.45663589239120483
1771998735346185500,14.638185546875,0.46288299560546875,0.4695476293563843,0.451974481344223
1771998735364983800,14.65698388671875,0.14083480834960938,0.6847354173660278,0.7056534886360168
1771998735383782100,14.6757822265625,0.043758392333984375,0.5535936951637268,0.6567059755325317
1771998735402580500,14.69458056640625,0.1608285903930664,0.3085971772670746,0.20178335905075073
1771998735421378800,14.71337890625,0.34519195556640625,0.05040043592453003,0.02563554048538208
1771998735440177200,14.73217724609375,0.13248443603515625,-0.032202839851379395,-0.10416728258132935
1771998735458975500,14.7509755859375,-0.28319358825683594,-0.05919069051742554,-0.17574840784072876
1771998735477773800,14.76977392578125,-0.6503372192382812,-0.10111343860626221,-0.028172612190246582
1771998735496572200,14.788572265625,-0.6214151382446289,-0.16880857944488525,0.02805638313293457
1771998735515370500,14.80737060546875,-0.16089344024658203,-0.47254127264022827,-0.2007163166999817
1771998735534169000,14.826169189453125,0.2514381408691406,-0.47821468114852905,-0.1442490816116333
1771998735552967400,14.844967529296875,0.3681468963623047,-0.08891892433166504,0.054519832134246826
1771998735571765800,14.863765869140625,0.2780723571777344,0.3671829104423523,0.09272706508636475
1771998735590564000,14.882564208984375,0.06931781768798828,0.3904609680175781,0.07494452595710754
1771998735609362400,14.901362548828125,0.34386730194091797,0.228002667427063,0.11657145619392395
1771998735628160800,14.920160888671875,0.26720714569091797,0.4673640727996826,-0.13306200504302979
1771998735646959000,14.938958984375,-0.1321249008178711,0.4428069293498993,-0.4802018404006958
1771998735665757400,14.95775732421875,-0.1640939712524414,0.23938634991645813,-0.06032079458236694
1771998735684555800,14.9765556640625,-0.10834121704101562,0.028261303901672363,0.31975722312927246
1771998735703354000,14.99535400390625,-0.29306507110595703,-0.0369076132774353,0.10249319672584534
1771998735722152400,15.01415234375,-0.3764524459838867,-0.13032567501068115,-0.5289535522460938
1771998735740950800,15.03295068359375,0.17170333862304688,-0.3877454996109009,-0.4165889322757721
1771998735769148200,15.061148193359376,-0.26786327362060547,-0.14889931678771973,0.2401530146598816
1771998735787946500,15.079946533203126,-0.20817852020263672,0.18866503238677979,-0.1254633069038391
1771998735806745000,15.0987451171875,0.2267284393310547,0.3886667490005493,-0.7090237140655518
1771998735825543400,15.11754345703125,0.34207916259765625,0.1539478302001953,-0.5868807435035706
1771998735844341800,15.136341796875,0.21714305877685547,-0.12838530540466309,-0.04070544242858887
1771998735863140000,15.15514013671875,0.2316722869873047,-0.16275185346603394,-0.14771440625190735
1771998735881938400,15.1739384765625,-0.044173240661621094,0.12632030248641968,-0.42920371890068054
1771998735900736800,15.19273681640625,-0.2962360382080078,0.036084115505218506,-0.5261280536651611
1771998735919535000,15.21153515625,-0.36323070526123047,-0.2781122326850891,-0.32139378786087036
1771998735938333400,15.23033349609375,-0.08968830108642578,-0.49440068006515503,-0.31196489930152893
1771998735957131800,15.2491318359375,-0.12129783630371094,-0.5173071026802063,-0.5320883393287659
1771998735975930000,15.26793017578125,-0.09862232208251953,-0.3922263979911804,-0.1934162974357605
1771998735994728400,15.286728515625,-0.1651773452758789,-0.44891685247421265,0.37587547302246094
1771998736013526800,15.30552685546875,-0.058348655700683594,-0.1779232621192932,0.28681352734565735
1771998736032325000,15.3243251953125,0.12822628021240234,-0.07481980323791504,-0.10990080237388611
1771998736051123500,15.34312353515625,0.05516338348388672,-0.1518005132675171,-0.3328271210193634
1771998736069921800,15.361921875,-0.24610137939453125,-0.24023985862731934,-0.011326909065246582
1771998736088720400,15.380720458984374,-0.3623542785644531,-0.27021706104278564,0.2215074598789215
1771998736107518500,15.3995185546875,-0.5105829238891602,-0.27022016048431396,0.21275702118873596
1771998736135716000,15.427716064453126,0.08745288848876953,-0.724951446056366,-0.11414635181427002
1771998736154514400,15.446514404296876,0.811640739440918,-0.33338457345962524,0.1712203323841095
1771998736173312800,15.465312744140626,0.5882911682128906,0.2900429368019104,0.4558928906917572
1771998736192111000,15.484111083984375,-0.032113075256347656,0.5586420297622681,0.5670335292816162
1771998736210909400,15.502909423828125,-0.009394645690917969,0.4096525311470032,0.5450202226638794
1771998736229707800,15.521707763671875,0.054741859436035156,0.00944828987121582,0.34299641847610474
1771998736248506000,15.540506103515625,-0.06388664245605469,-0.019785702228546143,0.0059365928173065186
1771998736267304400,15.559304443359375,-0.4687986373901367,-0.13972586393356323,-0.02972567081451416
1771998736286102800,15.578102783203125,-0.5282649993896484,-0.3333900570869446,0.20927086472511292
1771998736304901000,15.596901123046875,-0.4814586639404297,-0.48393774032592773,0.2269858717918396
1771998736323699500,15.615699462890625,-0.04615592956542969,-0.45903974771499634,0.23879019916057587
1771998736342498000,15.634498046875,0.15204143524169922,-0.22012293338775635,0.2809354066848755
1771998736361296400,15.65329638671875,0.16615581512451172,0.1876787543296814,0.21889086067676544
1771998736380094700,15.6720947265625,0.04255867004394531,0.4156801104545593,0.09801039099693298
1771998736398893000,15.69089306640625,0.3536653518676758,0.20753765106201172,0.10728314518928528
1771998736417691400,15.70969140625,0.20885848999023438,-0.07278448343276978,0.06531107425689697
1771998736436489700,15.72848974609375,-0.23018455505371094,-0.14356142282485962,0.09672778844833374
1771998736483485700,15.775485595703126,-0.28307247161865234,-0.1906614899635315,0.33788421750068665
1771998736502283800,15.79428369140625,-0.14328575134277344,-0.1774212121963501,0.16896259784698486
1771998736521082000,15.81308203125,-0.1251230239868164,-0.11271798610687256,0.17431104183197021
1771998736539880400,15.83188037109375,0.01352691650390625,-0.06821274757385254,0.1569739282131195
1771998736558678800,15.8506787109375,0.16193771362304688,-0.04124248027801514,0.055977463722229004
1771998736577477000,15.86947705078125,0.2713966369628906,-0.10304492712020874,0.08233976364135742
1771998736596275700,15.888275634765625,0.19454097747802734,-0.2429768443107605,0.14426741003990173
1771998736615074000,15.907073974609375,-0.0006761550903320312,-0.24930137395858765,0.0994417667388916
1771998736633872400,15.925872314453125,-0.04522705078125,-0.10312825441360474,0.0952078104019165
1771998736652670700,15.944670654296875,-0.14606666564941406,-0.01874256134033203,-0.06169953942298889
1771998736671469000,15.963468994140625,0.1038198471069336,0.027684390544891357,-0.12560707330703735
1771998736690267400,15.982267333984375,0.07559013366699219,-0.011532068252563477,-0.07767221331596375
1771998736709065700,16.001065673828126,-0.06931018829345703,-0.00148850679397583,0.016466975212097168
1771998736727864000,16.019864013671874,-0.04958820343017578,0.09036505222320557,0.053186267614364624
1771998736746662400,16.038662353515626,0.08206748962402344,0.1453818678855896,-0.1156298816204071
1771998736765460700,16.057460693359374,0.04782867431640625,0.013141930103302002,-0.20163679122924805
1771998736784259000,16.076259033203126,0.14128875732421875,-0.10079026222229004,-0.051511168479919434
1771998736803057400,16.095057373046874,-0.04876899719238281,-0.08336436748504639,0.034196168184280396
1771998736821855700,16.113855712890626,-0.09678936004638672,-0.054463088512420654,-0.042025208473205566
1771998736840654300,16.132654296875,-0.028868675231933594,-0.13184863328933716,-0.22142791748046875
1771998736859452700,16.15145263671875,-0.09017467498779297,-0.25758254528045654,-0.17898356914520264
1771998736878251000,16.1702509765625,-0.07218647003173828,-0.23136663436889648,-0.14820155501365662
1771998736906448400,16.198448486328125,0.1537151336669922,-0.12620502710342407,-0.18188032507896423
1771998736925246700,16.217246826171873,0.10227489471435547,-0.15028983354568481,-0.29368141293525696
1771998736944045000,16.236045166015625,-0.0036230087280273438,-0.16685974597930908,-0.1644017994403839
1771998736962843400,16.254843505859377,-0.12301445007324219,-0.21357524394989014,0.015361517667770386
1771998736981641700,16.273641845703125,-0.08698368072509766,-0.30826669931411743,-0.040317028760910034
1771998737000440000,16.292440185546877,0.0397796630859375,-0.4555959701538086,-0.22134971618652344
1771998737019238400,16.31123828125,0.02912139892578125,-0.5398033857345581,-0.24842816591262817
1771998737038036700,16.33003662109375,-0.19520092010498047,-0.5746673345565796,-0.09825584292411804
1771998737056835000,16.3488349609375,-0.04907703399658203,-0.3582414388656616,0.02577027678489685
1771998737075633700,16.367633544921876,0.030328750610351562,-0.2602846026420593,-0.03643634915351868
1771998737094432000,16.386431884765624,0.07962799072265625,-0.42087697982788086,-0.1289966106414795
1771998737113230300,16.405230224609376,0.16880130767822266,-0.6030830144882202,0.19279050827026367
1771998737132028700,16.424028564453124,0.3641996383666992,-0.555465817451477,0.5249485969543457
1771998737150827000,16.442826904296876,-0.04025459289550781,-0.3485668897628784,0.426206111907959
1771998737169625300,16.461625244140624,-0.21423625946044922,-0.37689119577407837,0.2874845564365387
1771998737188423700,16.480423583984376,-0.3745079040527344,-0.48872697353363037,0.1853371262550354
1771998737207222000,16.499221923828124,-0.5649995803833008,-0.4933159351348877,0.24541786313056946
1771998737226020400,16.518020263671875,-0.4462766647338867,-0.7958022356033325,0.06507161259651184
1771998737244818700,16.536818603515623,0.1727447509765625,-0.8797855377197266,0.10692304372787476
1771998737263617000,16.555616943359375,0.42519187927246094,-0.4818458557128906,0.3759040832519531
1771998737282415400,16.574415283203123,-0.06606769561767578,-0.03552049398422241,0.33422982692718506
1771998737301213700,16.593213623046875,-0.18743515014648438,0.15112167596817017,0.2991156280040741
1771998737329411300,16.621411376953127,0.5171012878417969,-0.02554696798324585,0.12421393394470215
1771998737348209700,16.640209716796875,0.6640481948852539,-0.07791924476623535,0.2770129442214966
1771998737367008000,16.659008056640626,0.3945426940917969,0.24171090126037598,0.23627734184265137
1771998737385806300,16.677806396484375,-0.17045021057128906,0.32056599855422974,0.12818214297294617
1771998737404604700,16.696604736328126,0.012538909912109375,0.06702446937561035,0.3180067539215088
1771998737423403000,16.715403076171874,0.20450305938720703,-0.4122428894042969,0.6396336555480957
1771998737442201300,16.734201416015626,-0.11470699310302734,-0.7099446058273315,0.6513218879699707
1771998737460999700,16.752999755859374,-0.4286613464355469,-0.7493908405303955,0.2911376953125
1771998737479798000,16.771798095703126,-0.37256431579589844,-0.6461986899375916,0.08021584153175354
1771998737498596400,16.790596435546874,-0.19022464752197266,-0.7930125594139099,0.42333465814590454
1771998737517394700,16.809394775390626,-0.5506505966186523,-0.7714886665344238,0.6089457273483276
1771998737536193300,16.828193359375,-0.4068107604980469,-0.7341033816337585,0.3837912082672119
1771998737554991600,16.84699169921875,-0.026844024658203125,-0.6488131284713745,0.06490451842546463
1771998737573790000,16.8657900390625,-0.25849342346191406,-0.49807095527648926,0.020410731434822083
1771998737601987300,16.8939873046875,-0.23436260223388672,-0.4498330354690552,0.15243642032146454
1771998737620785700,16.91278564453125,-0.18302345275878906,-0.5786557197570801,-0.0020602047443389893
1771998737639584000,16.931583984375,-0.18521785736083984,-0.6577455997467041,0.07032082229852676
1771998737658382300,16.95038232421875,-0.30605506896972656,-0.5411603450775146,0.4031124711036682
1771998737677180700,16.9691806640625,-0.17706966400146484,-0.4100714921951294,0.5039924383163452
1771998737695979000,16.98797900390625,-0.045525550842285156,-0.34035634994506836,0.3968515396118164
1771998737714777300,17.00677734375,0.15258216857910156,-0.14715683460235596,0.15198008716106415
1771998737733575700,17.02557568359375,0.3009777069091797,0.17836380004882812,-0.09068065136671066
1771998737752374300,17.044374267578124,0.13230609893798828,0.0336151123046875,0.16347399353981018
1771998737771172600,17.063172607421876,0.4674110412597656,-0.1195594072341919,0.4124932885169983
1771998737789971000,17.081970947265624,1.3768682479858398,0.24679386615753174,0.1404082179069519
1771998737808769300,17.100769287109376,1.6626653671264648,0.4856654405593872,-0.4650040864944458
1771998737827567600,17.119567626953124,1.0358781814575195,0.4077587127685547,-0.4811599850654602
1771998737846366000,17.138365966796876,1.0123157501220703,0.3518238067626953,-0.060501471161842346
1771998737865164300,17.157164306640624,1.1841840744018555,0.2799570560455322,0.180705726146698
1771998737883962600,17.175962646484376,1.3124160766601562,0.3346414566040039,0.017643682658672333
1771998737902761000,17.194760986328124,0.8089466094970703,0.4317004680633545,-0.2655145823955536
1771998737921559300,17.213559326171875,0.5398473739624023,0.5094150304794312,-0.2598690688610077
1771998737940357600,17.232357666015623,0.35918426513671875,0.6551969647407532,-0.193222314119339
1771998737959156000,17.251156005859375,0.3921184539794922,0.5849102139472961,-0.2506389617919922
1771998737977954300,17.269954345703123,0.3274869918823242,0.5248037576675415,-0.4002046287059784
1771998737996752600,17.288752685546875,0.5249204635620117,0.7874022722244263,-0.4124239683151245
1771998738015551000,17.307551025390627,0.3249034881591797,0.9280191659927368,-0.24172860383987427
1771998738034349300,17.326349365234375,-0.36962127685546875,0.9760640859603882,-0.31697073578834534
1771998738053147600,17.345147705078126,-0.5419635772705078,0.8907761573791504,-0.4377639889717102
1771998738071946200,17.3639462890625,-0.6639261245727539,0.7499159574508667,-0.562244713306427
1771998738090744600,17.38274462890625,-0.8608236312866211,0.6872004270553589,-0.5762290358543396
1771998738109543000,17.40154296875,-0.9841957092285156,0.7234964370727539,-0.8905149698257446
1771998738128341200,17.42034130859375,-0.7607698440551758,0.686962366104126,-1.0238795280456543
1771998738147139600,17.4391396484375,-0.6452455520629883,0.8142189979553223,-0.8779435753822327
1771998738165938000,17.45793798828125,-0.5655431747436523,0.893497884273529,-0.779420793056488
1771998738194135600,17.486135498046874,-0.5036458969116211,0.8744664192199707,-0.3999670147895813
1771998738212934000,17.504933837890626,-0.28258228302001953,0.9096792936325073,-0.4693736433982849
1771998738231732200,17.523732177734374,-0.42075157165527344,0.9382774829864502,-0.603654682636261
1771998738250530600,17.542530517578125,-0.21772193908691406,0.6946938037872314,-0.5765098333358765
1771998738269329000,17.561328857421874,-0.15943431854248047,0.5041232705116272,-0.4144897162914276
1771998738288127200,17.580127197265625,-0.10736751556396484,0.5521605610847473,-0.21166038513183594
1771998738306925600,17.598925537109373,-0.601654052734375,0.584783673286438,-0.03279136121273041
1771998738325724000,17.617723876953125,-0.5901947021484375,0.4589921236038208,-0.3126094937324524
1771998738344522200,17.636522216796877,-0.12740516662597656,0.20019161701202393,-0.6379849910736084
1771998738363320600,17.655320556640625,-0.28266143798828125,0.1309279203414917,-0.6788356304168701
1771998738382119000,17.674118896484377,-0.6103620529174805,0.06631457805633545,-0.25756457448005676
1771998738400917200,17.692917236328125,-0.6471242904663086,0.24323135614395142,-0.14140912890434265
1771998738419715600,17.711715576171876,0.13215160369873047,0.7782838344573975,-0.35124272108078003
1771998738447913200,17.739913330078124,-0.48424339294433594,0.4096074104309082,-0.3543289005756378
1771998738466711600,17.758711669921876,-0.3289804458618164,-0.39460861682891846,-0.4152514338493347
1771998738485510000,17.777510009765624,-0.03318023681640625,-0.6342945098876953,-0.7481166124343872
1771998738504308200,17.79630810546875,0.49248695373535156,-0.26542532444000244,-0.8154301643371582
1771998738523106600,17.8151064453125,0.3232250213623047,-0.26487231254577637,-0.3958868980407715
1771998738541905000,17.83390478515625,0.09796524047851562,-0.6077086925506592,0.18681156635284424
1771998738560703200,17.852703125,0.5126829147338867,-0.8152046203613281,0.008052140474319458
1771998738579501800,17.871501708984376,1.4323444366455078,-0.5283247232437134,-0.5492894053459167
1771998738598300200,17.890300048828124,1.7873039245605469,-0.038516998291015625,-0.7015063762664795
1771998738617098500,17.909098388671875,1.3305635452270508,0.5576593279838562,-0.3609795570373535
1771998738635896800,17.927896728515623,1.0832929611206055,1.1439207792282104,-0.053609222173690796
1771998738654695200,17.946695068359375,1.4361886978149414,1.1454241275787354,0.0738634467124939
1771998738673493500,17.965493408203123,1.0574264526367188,0.5789058208465576,-0.16364753246307373
1771998738692291800,17.984291748046875,0.4497499465942383,0.5089651346206665,-0.07722586393356323
1771998738711090200,18.003090087890627,0.7357931137084961,0.614086389541626,0.04867905378341675
1771998738729888500,18.021888427734375,0.6112852096557617,0.5226382613182068,0.19295597076416016
1771998738748686800,18.040686767578126,-0.024738311767578125,0.5581914186477661,0.31573644280433655
1771998738767485200,18.059485107421875,-0.6364831924438477,0.6324577331542969,0.38249048590660095
1771998738786283500,18.078283447265626,-0.8411273956298828,0.5598384141921997,0.34183889627456665
1771998738805081900,18.097081787109374,-0.6129283905029297,0.4939879775047302,0.23265349864959717
1771998738823880200,18.115880126953126,-0.9678459167480469,0.646971583366394,0.5549781322479248
1771998738842678500,18.134678466796874,-0.9276018142700195,0.9731330871582031,0.7314428687095642
1771998738861476900,18.153476806640626,-0.3367013931274414,1.2181562185287476,0.5380846858024597
1771998738880275500,18.172275390625,-0.24207496643066406,1.364063024520874,0.288257896900177
1771998738899073800,18.19107373046875,-0.575871467590332,1.4113130569458008,0.07897567749023438
1771998738917872000,18.2098720703125,-0.37676239013671875,1.4109679460525513,0.03971439599990845
1771998738936670500,18.22867041015625,-0.36340904235839844,1.1456273794174194,0.31439271569252014
1771998738955468800,18.24746875,-0.2684659957885742,1.032827377319336,0.46554291248321533
1771998738974267100,18.26626708984375,0.09894466400146484,1.054769515991211,0.12989908456802368
1771998738993065500,18.2850654296875,-0.15194129943847656,0.8714883923530579,0.14289438724517822
1771998739011863800,18.30386376953125,-0.3877420425415039,0.8522361516952515,0.594927191734314
1771998739030662100,18.322662109375,-0.5893774032592773,0.7105933427810669,0.7256250381469727
1771998739049460500,18.34146044921875,-0.1514291763305664,0.4652305245399475,0.5044398307800293
1771998739068258800,18.3602587890625,-0.019781112670898438,0.25278782844543457,0.213753342628479
1771998739087057200,18.37905712890625,-0.41740989685058594,0.4662543535232544,-0.03621548414230347
1771998739105855500,18.39785546875,-0.26946067810058594,0.4691370725631714,0.10960176587104797
1771998739124653800,18.41665380859375,-0.33088016510009766,0.005743861198425293,0.514514148235321
1771998739143452200,18.4354521484375,-0.4261302947998047,-0.44292151927948,0.5438554883003235
1771998739162250800,18.454250732421876,-0.5513734817504883,-0.50734543800354,0.31533852219581604
1771998739181049000,18.473049072265624,-0.3675975799560547,-0.46735525131225586,0.1673300564289093
1771998739199847400,18.491847412109376,0.2851076126098633,-0.5334703922271729,0.04317048192024231
1771998739218645800,18.510645751953124,0.38657283782958984,-0.26074111461639404,-0.08708399534225464
1771998739237444000,18.529444091796876,0.3040771484375,0.2447723150253296,-0.07548069953918457
1771998739256242400,18.548242431640624,0.5546131134033203,0.5342888832092285,-0.08894827961921692
1771998739275040800,18.567040771484375,0.6431121826171875,0.3827492594718933,0.16953089833259583
1771998739293839000,18.585839111328124,0.5659351348876953,0.19146108627319336,0.22265693545341492
1771998739312637400,18.604637451171875,0.6452674865722656,0.090706467628479,0.12002837657928467
1771998739331435800,18.623435791015623,0.7705011367797852,-0.4261573553085327,0.12287989258766174
1771998739350234000,18.642234130859375,1.062394142150879,-0.178186297416687,0.23910152912139893
1771998739369032400,18.661032470703127,0.9342012405395508,0.3282766342163086,0.08554410934448242
1771998739387830800,18.679830810546875,0.6911735534667969,0.035509586334228516,-0.26149556040763855
1771998739406629000,18.698629150390627,0.9750642776489258,0.1323927640914917,-0.5997288227081299
1771998739425427500,18.717427490234375,1.7069816589355469,0.49494630098342896,-0.46370017528533936
1771998739444226000,18.73622607421875,0.8589591979980469,1.1149470806121826,-0.2103542983531952
1771998739463024400,18.7550244140625,-0.02123737335205078,1.379279613494873,0.1993306428194046
1771998739481822700,18.77382275390625,-0.016740798950195312,1.2384331226348877,0.22329086065292358
1771998739500621000,18.79262109375,0.2367238998413086,1.3173567056655884,-0.16635501384735107
1771998739519419400,18.81141943359375,-0.3393726348876953,1.4488104581832886,-0.4190320074558258
1771998739538217700,18.8302177734375,-0.7843103408813477,1.2828400135040283,-0.39792031049728394
1771998739557016000,18.84901611328125,-0.7113857269287109,1.1580438613891602,-0.2938944101333618
1771998739575814400,18.867814453125,-0.4437694549560547,0.9455357193946838,-0.6257295608520508
1771998739594612700,18.88661279296875,-0.1352825164794922,0.8959870934486389,-0.9846446514129639
1771998739613411000,18.9054111328125,0.04403877258300781,0.9667993187904358,-0.7556320428848267
1771998739632209400,18.92420947265625,-0.2061758041381836,0.9498977065086365,-0.10579818487167358
1771998739651007700,18.9430078125,-0.2570981979370117,0.9243039488792419,0.21974316239356995
1771998739669806000,18.96180615234375,0.1545581817626953,0.7447680234909058,0.041159987449645996
1771998739688604400,18.9806044921875,0.03433036804199219,0.5998983383178711,-0.1752105951309204
1771998739707402800,18.99940283203125,-0.2382211685180664,0.4695502519607544,-0.12543097138404846
1771998739726201300,19.018201416015625,-0.41596508026123047,0.2796105146408081,-0.07376012206077576
1771998739744999700,19.036999755859377,-0.41908836364746094,0.11788606643676758,-0.18378350138664246
1771998739763798000,19.055798095703125,-0.5591545104980469,0.09086215496063232,-0.2788236141204834
1771998739782596400,19.074596435546876,-0.6594963073730469,0.05756711959838867,-0.2851380407810211
1771998739801394700,19.093394775390625,-0.5614519119262695,-0.042496323585510254,-0.2551235258579254
1771998739820193000,19.112193115234376,-0.5868511199951172,-0.16064608097076416,-0.3395090401172638
1771998739838991400,19.130991455078124,-0.6615333557128906,-0.17875802516937256,-0.3669331967830658
1771998739857789700,19.149789794921876,-0.5080204010009766,-0.09693360328674316,-0.2488560974597931
1771998739876588000,19.168588134765624,-0.3150358200073242,0.05873763561248779,-0.2897152602672577
1771998739895386400,19.187386474609376,-0.561945915222168,0.07054054737091064,-0.4697730541229248
1771998739914185000,19.20618505859375,-0.48145198822021484,-0.11446666717529297,-0.48425644636154175
1771998739932983300,19.2249833984375,-0.21900367736816406,-0.2881612777709961,-0.4060143530368805
1771998739951781600,19.24378173828125,-0.11314010620117188,-0.29481756687164307,-0.2544960379600525
1771998739970579700,19.262579833984375,0.07721805572509766,-0.2135096788406372,-0.18639644980430603
1771998739989378300,19.28137841796875,0.2515735626220703,-0.11376094818115234,-0.2682885527610779
1771998740008176600,19.3001767578125,0.2957267761230469,0.01968836784362793,-0.2878538966178894
1771998740036374000,19.3283740234375,0.5109157562255859,-0.006380558013916016,-0.17664813995361328
1771998740055172400,19.34717236328125,0.5442705154418945,-0.25073516368865967,-0.18730580806732178
1771998740073971000,19.365970947265627,1.4606781005859375,-0.0039550065994262695,-0.34090733528137207
1771998740102168300,19.394168212890627,1.1670284271240234,0.5048776865005493,-0.039837658405303955
1771998740120966700,19.412966552734375,0.7348213195800781,0.6907140016555786,0.13250261545181274
1771998740139765000,19.431764892578126,1.1452970504760742,1.022127628326416,0.08436691761016846
1771998740158563300,19.450563232421874,1.2749090194702148,1.0340192317962646,0.0399356484413147
1771998740177362000,19.46936181640625,0.651829719543457,1.023118257522583,-0.024802863597869873
1771998740196160300,19.48816015625,0.5311260223388672,1.0424225330352783,-0.17475038766860962
1771998740224357600,19.516357666015626,0.1156301498413086,1.1455638408660889,0.22041362524032593
1771998740243156000,19.535156005859374,-0.20119094848632812,1.161576271057129,0.5258083343505859
1771998740261954300,19.553954345703126,0.0337982177734375,1.1925384998321533,0.2852895259857178
1771998740280752600,19.572752685546874,-0.1079702377319336,1.4122403860092163,0.16084271669387817
1771998740308950300,19.6009501953125,-0.17514801025390625,1.430983066558838,0.692470908164978
1771998740327748600,19.61974853515625,-0.008153915405273438,1.4738202095031738,0.9369210600852966
1771998740346547000,19.638546875,-0.1503467559814453,1.430800437927246,0.6615318059921265
1771998740365345300,19.65734521484375,-0.13921833038330078,1.384932041168213,0.2613983154296875
1771998740384143600,19.6761435546875,-0.4877166748046875,1.1890711784362793,0.14720585942268372
1771998740412341200,19.70434130859375,-0.6626672744750977,0.40986883640289307,0.09491157531738281
1771998740431139600,19.7231396484375,-0.6902933120727539,-0.05432748794555664,0.11505904793739319
1771998740449938000,19.74193798828125,-0.8882036209106445,-0.16210615634918213,0.0016589164733886719
1771998740468736300,19.760736328125,-0.7052907943725586,-0.17434167861938477,-0.028663814067840576
1771998740487534600,19.77953466796875,-0.9099454879760742,-0.0858074426651001,0.1539953202009201
1771998740506333000,19.7983330078125,-0.7716178894042969,0.07788944244384766,0.42820510268211365
1771998740525131500,19.817131591796876,-0.6109342575073242,0.007115006446838379,0.409512996673584
1771998740543929900,19.835929931640624,-0.5941390991210938,-0.09069967269897461,0.19622372090816498
1771998740562728200,19.854728271484376,-0.3147869110107422,0.024266064167022705,0.0640491247177124
1771998740581526500,19.873526611328124,-0.32988452911376953,0.08489513397216797,0.24400605261325836
1771998740600324900,19.892324951171876,-0.49085140228271484,-0.17645865678787231,0.42334964871406555
1771998740619123200,19.911123291015624,-0.4187335968017578,-0.4802299737930298,0.2665215730667114
1771998740637921500,19.929921630859376,-0.4083375930786133,-0.6608514785766602,0.048875778913497925
1771998740656720000,19.948719970703124,-0.2571287155151367,-0.7255695462226868,0.12527301907539368
1771998740675518200,19.967518310546875,-0.07797527313232422,-0.6768336892127991,0.3156505525112152
1771998740694316500,19.986316650390624,0.006496429443359375,-0.38835644721984863,0.5397066473960876
1771998740722514200,20.01451416015625,0.7082014083862305,-0.0610232949256897,0.6016448140144348
1771998740741312500,20.0333125,0.4691352844238281,-0.15294033288955688,0.4571911692619324
1771998740760110800,20.05211083984375,0.46885013580322266,-0.5959345102310181,0.2400447428226471
1771998740778909200,20.0709091796875,1.3050413131713867,-0.8348414897918701,0.2159835696220398
1771998740797707500,20.08970751953125,1.9635543823242188,0.04335331916809082,0.32665035128593445
1771998740825905200,20.1179052734375,0.9224033355712891,0.5877659320831299,0.1350587010383606
1771998740844703500,20.136703369140626,1.205704689025879,0.6094635725021362,0.06933444738388062
1771998740863501800,20.155501708984374,1.3877429962158203,0.6462277173995972,-0.1355850100517273
1771998740891699200,20.18369921875,0.6762924194335938,0.9075847864151001,-0.36681637167930603
1771998740910497500,20.20249755859375,0.2966957092285156,1.097962498664856,0.11665187776088715
1771998740929296000,20.2212958984375,0.3106975555419922,0.9292881488800049,0.480502188205719
1771998740948094500,20.240094482421874,0.32468128204345703,0.9216414093971252,0.5472337007522583
1771998740966892800,20.258892822265626,0.5225934982299805,1.0425748825073242,0.1841859370470047
1771998740985691100,20.277691162109374,0.39745330810546875,1.0640742778778076,-0.10586988925933838
1771998741013888800,20.305888671875,-0.4280080795288086,1.1313461065292358,-0.5334749221801758
1771998741032687000,20.32468701171875,-0.6707906723022461,0.993105411529541,-0.6062734127044678
1771998741051485400,20.3434853515625,-0.942047119140625,0.8469179272651672,-0.616349458694458
1771998741070283800,20.36228369140625,-0.6453762054443359,0.8236640095710754,-0.8574696779251099
1771998741089082000,20.38108203125,-0.6105184555053711,0.9457513093948364,-0.80166095495224
1771998741107880400,20.39988037109375,-0.5993976593017578,1.1628526449203491,-0.5597177743911743
1771998741126678800,20.4186787109375,-0.4775381088256836,1.0935190916061401,-0.10684458911418915
1771998741145477000,20.43747705078125,-0.45801734924316406,0.8716956377029419,0.029369771480560303
1771998741164275500,20.456275390625,-0.5033369064331055,0.5873019695281982,-0.06250950694084167
1771998741183073800,20.47507373046875,-0.3720102310180664,0.4133090376853943,-0.03688997030258179
1771998741201872100,20.4938720703125,-0.5292520523071289,0.3132624626159668,-0.05910009145736694
1771998741220670500,20.51267041015625,-0.6397075653076172,0.11868488788604736,-0.0301973819732666
1771998741248868000,20.5408681640625,-0.964385986328125,-0.38454216718673706,-0.046842873096466064
1771998741267666400,20.55966650390625,-0.8884668350219727,-0.7203646898269653,-0.290677547454834
1771998741286464800,20.57846484375,-0.6961841583251953,-0.8871048092842102,-0.5549704432487488
1771998741305263000,20.59726318359375,-0.44246387481689453,-0.8979072570800781,-0.3677862286567688
1771998741324061400,20.6160615234375,-0.8089408874511719,-1.019183874130249,0.15157683193683624
1771998741342860000,20.634860107421876,-0.5089359283447266,-0.9264221787452698,0.30798012018203735
1771998741361658400,20.653658447265624,-0.0884714126586914,-0.700234591960907,-0.018355578184127808
1771998741380456700,20.672456787109375,0.12406539916992188,-0.4450104236602783,-0.3145298659801483
1771998741399255000,20.691255126953124,0.031421661376953125,0.04237562417984009,-0.30016008019447327
1771998741418053400,20.710053466796875,0.09304141998291016,0.3199083209037781,-0.02416953444480896
1771998741436851700,20.728851806640623,0.11250877380371094,0.15871912240982056,-0.0970194935798645
1771998741455650000,20.747650146484375,0.28179168701171875,-0.2076815366744995,-0.27128687500953674
1771998741474448400,20.766448486328127,0.7015771865844727,-0.39328110218048096,-0.4804127812385559
1771998741493246700,20.785246826171875,1.637751579284668,0.14091169834136963,-1.0477378368377686
1771998741521444400,20.8134443359375,1.5376081466674805,0.7174246907234192,-0.43455028533935547
1771998741540242700,20.83224267578125,1.4971904754638672,0.6368587017059326,0.18957051634788513
1771998741559041000,20.851041015625,1.3629608154296875,0.6027873754501343,0.40854448080062866
1771998741577839400,20.86983935546875,1.1049585342407227,0.5687856674194336,0.20880310237407684
1771998741596637700,20.8886376953125,0.7755460739135742,0.7600180506706238,-0.39519932866096497
1771998741615436000,20.90743603515625,0.25336170196533203,0.8512528538703918,-0.3005558252334595
1771998741634234400,20.926234375,-0.061310768127441406,0.9508993029594421,0.21020537614822388
1771998741653032700,20.94503271484375,-0.31570911407470703,0.730576753616333,0.49350643157958984
1771998741671831300,20.963831298828126,-0.26785755157470703,0.6274479031562805,0.06399232149124146
1771998741690629600,20.982629638671874,-0.3013896942138672,0.9065389633178711,-0.14265978336334229
1771998741709428000,21.001427978515625,-0.6562175750732422,0.9729013442993164,0.04380178451538086
1771998741728226300,21.020226318359374,-0.3849925994873047,0.8002582788467407,0.6653858423233032
1771998741747024600,21.039024658203125,0.0679769515991211,0.5962259769439697,0.8735418319702148
1771998741765823000,21.057822998046873,0.1315326690673828,0.6055138111114502,0.6271608471870422
1771998741784621300,21.076621337890625,-0.040022850036621094,0.7905032634735107,0.38562315702438354
1771998741803419600,21.095419677734377,-0.32184791564941406,0.9540808200836182,0.272327721118927
1771998741822218000,21.114218017578125,-0.6168642044067383,0.6998614072799683,0.3726855218410492
1771998741850415600,21.14241552734375,-0.8382148742675781,0.34691858291625977,0.5540440678596497
1771998741869214000,21.1612138671875,-1.1985750198364258,0.21047747135162354,0.6308125853538513
1771998741888012300,21.18001220703125,-1.0758981704711914,0.19953644275665283,0.47929251194000244
1771998741906810600,21.198810546875,-1.0618009567260742,0.1183009147644043,0.401725172996521
1771998741925609000,21.21760888671875,-1.2111711502075195,-0.08769583702087402,0.8600258231163025
1771998741944407300,21.2364072265625,-0.8573322296142578,-0.2532280683517456,0.9301984906196594
1771998741963205600,21.25520556640625,-0.33272838592529297,-0.16653084754943848,0.4916093349456787
1771998741982004000,21.27400390625,-0.07348060607910156,0.03337502479553223,0.12569484114646912
1771998742000802600,21.292802490234376,-0.18200397491455078,0.14534318447113037,0.2887638211250305
1771998742019601000,21.311600830078124,-0.5009384155273438,0.1773223876953125,0.565405547618866
1771998742047798300,21.33979833984375,-0.18223094940185547,-0.20993494987487793,0.2070295512676239
1771998742066596600,21.3585966796875,0.10651969909667969,-0.533038854598999,0.14673203229904175
1771998742085395000,21.37739501953125,0.17547893524169922,-0.5446019172668457,0.30657535791397095
1771998742104193300,21.396193359375,0.1720590591430664,-0.27095842361450195,0.4726463854312897
1771998742122991600,21.41499169921875,0.23892784118652344,-0.04496562480926514,0.39121928811073303
1771998742141790200,21.433790283203123,0.7422981262207031,-0.015207767486572266,0.36120545864105225
1771998742160588500,21.452588623046875,0.48618221282958984,-0.0029259920120239258,0.2636827826499939
1771998742179387000,21.471386962890627,0.16111183166503906,-0.10422360897064209,0.2789075970649719
1771998742198185200,21.490185302734375,0.6526365280151367,-0.3532841205596924,0.3512095808982849
1771998742216983600,21.508983642578126,2.0107927322387695,0.24364876747131348,-0.07248750329017639
1771998742245181200,21.53718115234375,0.5200824737548828,0.11904609203338623,-0.44566839933395386
1771998742263979500,21.5559794921875,0.7061500549316406,0.260745108127594,-0.4261648654937744
1771998742282777900,21.57477783203125,1.061309814453125,0.3022992014884949,-0.2850952744483948
1771998742301576200,21.593576171875,0.7853527069091797,0.6546982526779175,0.05049946904182434
1771998742320374500,21.61237451171875,0.033481597900390625,0.9262935519218445,0.4325605034828186
1771998742339172900,21.6311728515625,0.30397605895996094,0.8772031664848328,0.2579058110713959
1771998742357971200,21.64997119140625,0.31032752990722656,0.8803539276123047,-0.06545129418373108
1771998742376769500,21.66876953125,-0.31813526153564453,1.0329872369766235,0.04206061363220215
1771998742395567900,21.68756787109375,-0.5702352523803711,1.1369917392730713,-0.11837521195411682
1771998742414366200,21.7063662109375,-0.5468273162841797,0.8182576298713684,-0.4239608347415924
1771998742433164500,21.72516455078125,-0.3291912078857422,0.6908009052276611,-0.8053165078163147
1771998742451963000,21.743962890625,-0.18573856353759766,0.7001761794090271,-0.9809831380844116
1771998742470761500,21.762761474609373,-0.06789207458496094,1.0492868423461914,-0.7592545747756958
1771998742489559800,21.781559814453125,-0.1676931381225586,1.280358910560608,-0.37231549620628357
1771998742508358100,21.800358154296877,0.10490989685058594,1.0400800704956055,-0.20041708648204803
1771998742527156500,21.819156494140625,-0.11403465270996094,0.6677844524383545,-0.09434282779693604
1771998742545954800,21.837954833984377,-0.22258377075195312,0.40597790479660034,0.05579155683517456
1771998742564753200,21.856753173828125,-0.3480672836303711,0.2618226408958435,-0.13231495022773743
1771998742583551500,21.875551513671876,-0.28998756408691406,0.1543748378753662,-0.46045970916748047
1771998742602349800,21.894349853515624,-0.35012340545654297,0.09432089328765869,-0.4629831612110138
1771998742621148200,21.913148193359376,-0.8344860076904297,-0.02527928352355957,-0.1985936462879181
1771998742639946500,21.931946533203124,-0.8738059997558594,-0.17378580570220947,-0.11253756284713745
1771998742658744800,21.950744873046876,-0.9032669067382812,-0.267657995223999,-0.2528308928012848
1771998742677543200,21.969543212890624,-0.7145099639892578,-0.25591349601745605,-0.33795231580734253
1771998742696341800,21.988341796875,-0.8471384048461914,-0.21962332725524902,-0.22689440846443176
1771998742715140000,22.00714013671875,-0.6918573379516602,-0.2536526918411255,-0.05764922499656677
1771998742733938400,22.0259384765625,-0.8625688552856445,-0.2752188444137573,-0.07814604043960571
1771998742752736800,22.04473681640625,-0.8950653076171875,-0.21961760520935059,-0.3118676543235779
1771998742771535000,22.06353515625,-0.42766571044921875,-0.2519345283508301,-0.32513192296028137
1771998742790333400,22.08233349609375,-0.06176471710205078,-0.37790346145629883,-0.3008975386619568
1771998742809131800,22.1011318359375,-0.16506576538085938,-0.3877685070037842,-0.44482630491256714
1771998742827930000,22.11993017578125,-0.2679119110107422,-0.4536011219024658,-0.36531755328178406
1771998742846728700,22.138728759765623,0.0032625198364257812,-0.3925902843475342,-0.28572097420692444
1771998742865527000,22.157527099609375,0.4244976043701172,-0.39368903636932373,-0.108502596616745
1771998742884325400,22.176325439453127,0.3900871276855469,-0.32994937896728516,0.022506386041641235
1771998742903123700,22.195123779296875,0.34766101837158203,-0.34470903873443604,-0.1328880786895752
1771998742921922000,22.213922119140626,1.214207649230957,-0.253179669380188,-0.3797711133956909
1771998742950119400,22.242119384765626,1.5903024673461914,0.35497474670410156,-0.03173786401748657
1771998742968917800,22.260917724609374,1.144047737121582,0.31201398372650146,0.1734887957572937
1771998742987716000,22.279716064453126,1.3015918731689453,0.5297438502311707,0.1486339569091797
1771998743006514700,22.2985146484375,0.8489580154418945,0.8651370406150818,-0.017238199710845947
1771998743025313000,22.31731298828125,0.4178285598754883,1.1591464281082153,0.08495181798934937
1771998743044111400,22.336111328125,0.20540237426757812,1.191026210784912,0.1402265429496765
1771998743062909700,22.35490966796875,0.14961719512939453,1.072516679763794,0.20537281036376953
1771998743081708000,22.3737080078125,-0.37363719940185547,1.082778811454773,0.22575366497039795
1771998743100506400,22.39250634765625,-0.44255542755126953,1.0882422924041748,0.19434010982513428
1771998743119304700,22.4113046875,-0.22533512115478516,1.0051186084747314,0.2255818247795105
1771998743138103000,22.43010302734375,-0.02594280242919922,0.9229381084442139,0.3868059515953064
1771998743166300700,22.45830078125,0.09740161895751953,1.1473356485366821,0.4965691864490509
1771998743185099000,22.47709912109375,-0.31547069549560547,1.2045232057571411,0.34951746463775635
1771998743203897300,22.4958974609375,-0.27380847930908203,0.9461544752120972,0.11751586198806763
1771998743222695700,22.51469580078125,-0.17875194549560547,0.5038895606994629,0.1369161605834961
1771998743250893300,22.542893310546877,-0.6759157180786133,0.07328307628631592,0.13877657055854797
1771998743269691600,22.561691650390625,-0.8202800750732422,0.032732486724853516,0.2056761085987091
1771998743288490000,22.580489990234376,-0.655674934387207,0.055406928062438965,0.12511244416236877
1771998743307288300,22.599288330078124,-0.7436275482177734,-0.016488313674926758,0.004752039909362793
1771998743326086700,22.618086669921876,-0.710169792175293,-0.06513440608978271,0.11258536577224731
1771998743354284300,22.6462841796875,-1.0748023986816406,-0.19682574272155762,0.7482292652130127
1771998743373082600,22.66508251953125,-1.0352897644042969,-0.24309635162353516,0.5840905904769897
1771998743391881000,22.683880859375,-0.8857812881469727,-0.28716111183166504,0.17626112699508667
1771998743410679300,22.70267919921875,-0.767120361328125,-0.4458879232406616,0.21152836084365845
1771998743429477600,22.7214775390625,-0.885167121887207,-0.4860038757324219,0.5140173435211182
1771998743448276000,22.74027587890625,-0.7161645889282227,-0.4947957992553711,0.627784013748169
1771998743467074300,22.75907421875,-0.31101036071777344,-0.5907208919525146,0.3431021273136139
1771998743485872600,22.77787255859375,-0.13462352752685547,-0.5522308349609375,0.10970345139503479
1771998743504671000,22.7966708984375,0.13716602325439453,-0.34578418731689453,0.13462549448013306
1771998743523469300,22.81546923828125,0.46684741973876953,-0.046874403953552246,0.23493893444538116
1771998743542268000,22.834267822265623,0.6890096664428711,0.06613945960998535,0.19584736227989197
1771998743561066200,22.853066162109375,0.6304388046264648,0.09054350852966309,0.2867875099182129
1771998743579864600,22.871864501953127,0.5038537979125977,-0.19039678573608398,0.41865992546081543
1771998743608062200,22.900062255859375,1.9382257461547852,-0.05048656463623047,0.13191232085227966
1771998743626860500,22.918860595703126,1.2559566497802734,-0.032835960388183594,-0.15295305848121643
1771998743645659000,22.937658935546875,0.9447183609008789,0.09621298313140869,-0.2935301661491394
1771998743664457200,22.956457275390626,1.1438398361206055,0.39986371994018555,-0.19801899790763855
1771998743683255600,22.975255615234374,1.353074073791504,0.6403646469116211,-0.01794096827507019
1771998743702054000,22.994053955078126,1.261622428894043,0.830191969871521,0.047986119985580444
1771998743720852200,23.012852294921874,0.6629428863525391,0.8897707462310791,-0.2549816071987152
1771998743739650600,23.031650634765626,0.4581575393676758,1.105836033821106,-0.5476517081260681
1771998743758449000,23.050448974609374,0.21933746337890625,1.17744779586792,-0.4072859585285187
1771998743777247200,23.069247314453126,-0.07186031341552734,0.9315693378448486,-0.2949172854423523
1771998743796045600,23.088045654296874,-0.5931339263916016,0.7372549772262573,-0.2865758538246155
1771998743814844000,23.106843994140625,-0.7150411605834961,0.7391608953475952,-0.0656856894493103
1771998743833642500,23.125642578125,-0.729893684387207,0.6896372437477112,-0.21685591340065002
1771998743852440800,23.14444091796875,-0.36830615997314453,0.7588039040565491,-0.6121615767478943
1771998743871239200,23.1632392578125,-0.36913108825683594,0.9381895065307617,-0.6209871768951416
1771998743890037500,23.18203759765625,-0.44600677490234375,1.040464997291565,-0.40623199939727783
1771998743918235100,23.210235107421877,-0.3960742950439453,0.8660856485366821,0.00021442770957946777
1771998743937033500,23.229033447265625,-0.3419780731201172,0.8068129420280457,-0.16803710162639618
1771998743955831800,23.247831787109376,-0.443206787109375,0.7123945951461792,-0.2888895571231842
1771998743974630100,23.266630126953125,-0.6511783599853516,0.4694492816925049,-0.1081305742263794
1771998743993428500,23.285428466796876,-0.5920314788818359,0.08563566207885742,-0.26852357387542725
1771998744021626000,23.313626220703124,-0.6655149459838867,-0.22410142421722412,-0.562950849533081
1771998744040424200,23.332424072265624,-0.612370491027832,-0.18105697631835938,-0.48206156492233276
1771998744059222800,23.351222900390624,-0.6239652633666992,-0.26281869411468506,-0.29200810194015503
1771998744078021000,23.370021240234376,-0.5203628540039062,-0.5036829710006714,-0.14719650149345398
1771998744096819500,23.3888193359375,-0.5360994338989258,-0.6580196619033813,-0.05553369224071503
1771998744115617800,23.40761767578125,-0.7252979278564453,-0.5895917415618896,-0.03474755585193634
1771998744134416100,23.426416015625,-0.6586580276489258,-0.5550107955932617,-0.015430539846420288
1771998744153214500,23.44521435546875,-0.58746337890625,-0.5810892581939697,-0.11278736591339111
1771998744172012800,23.4640126953125,-0.2112874984741211,-0.4758422374725342,-0.24956746399402618
1771998744190811100,23.48281103515625,-0.04155445098876953,-0.5190925598144531,0.001058325171470642
1771998744209609700,23.501609619140623,0.08555126190185547,-0.4803593158721924,0.17278937995433807
1771998744228408000,23.520407958984375,0.37021446228027344,-0.24383115768432617,-0.13143160939216614
1771998744247206400,23.539206298828127,0.29740428924560547,-0.007712244987487793,-0.5599854588508606
1771998744266004700,23.558004638671875,0.44036388397216797,-0.022368788719177246,-0.6327338218688965
1771998744284803000,23.576802978515627,1.6829900741577148,-0.035436034202575684,-0.6987574100494385
1771998744303601400,23.595601318359375,1.8575859069824219,0.4077543616294861,-0.2754662036895752
1771998744322399700,23.614399658203126,1.1947059631347656,0.2447061538696289,0.2709043025970459
1771998744350597400,23.642597412109374,1.2440624237060547,0.48848605155944824,0.5713140964508057
1771998744369395700,23.661395751953126,1.3729610443115234,0.5570240616798401,0.2830372452735901
1771998744388194000,23.680194091796874,1.0236196517944336,0.7287553548812866,-0.10487529635429382
1771998744406992400,23.698992431640626,0.4179811477661133,0.9204767942428589,-0.12641972303390503
1771998744425790700,23.717790771484374,0.20250320434570312,1.0046509504318237,0.17433354258537292
1771998744453988400,23.74598828125,-0.26768016815185547,0.9006690382957458,0.3802171051502228
1771998744472786700,23.76478662109375,-0.6609163284301758,0.679421603679657,0.274941086769104
