time,seconds_elapsed,z,y,x
1771628578921730000,0.10372998046875,9.848857879638672,1.5158531665802002,0.16510476171970367
1771628578940529200,0.122529052734375,9.860821723937988,1.384247899055481,0.20458634197711945
1771628578959328300,0.141328369140625,9.966106414794922,1.384247899055481,0.3170489966869354
1771628578978127400,0.16012744140625,9.91107177734375,1.3830515146255493,0.3577269911766052
1771628578996926500,0.178926513671875,9.717252731323242,1.420140266418457,0.28594231605529785
1771628579015725600,0.1977255859375,9.665806770324707,1.4632110595703125,0.12921242415905
1771628579034524700,0.216524658203125,9.558130264282227,1.439282774925232,0.275174617767334
1771628579053323800,0.23532373046875,9.705288887023926,1.389033555984497,0.2907279431819916
1771628579072123000,0.254122802734375,9.762716293334961,1.3304094076156616,0.24526432156562805
1771628579090922000,0.272921875,9.714859962463379,1.3878371715545654,0.3026920557022095
1771628579109721300,0.291721435546875,9.637093544006348,1.4632110595703125,0.26919254660606384
1771628579128520400,0.3105205078125,9.757930755615234,1.4979069232940674,0.486939400434494
1771628579147319600,0.329319580078125,9.844072341918945,1.4057832956314087,0.5300102233886719
1771628579166118700,0.34811865234375,9.998409271240234,1.333998680114746,0.3314059376716614
1771628579184917800,0.366917724609375,10.089336395263672,1.4033905267715454,0.09571290761232376
1771628579203716900,0.385716796875,9.812965393066406,1.211964726448059,0.07896314561367035
1771628579222516000,0.404515869140625,9.680164337158203,1.3471591472625732,0.3206382393836975
1771628579241315000,0.423315185546875,9.652647018432617,1.2729816436767578,0.2309073805809021
1771628579260114200,0.4421142578125,9.364311218261719,1.3124631643295288,0.0526420995593071
1771628579278913300,0.460913330078125,9.69212818145752,1.2370892763137817,0.1543370634317398
1771628579297712600,0.479712646484375,10.013962745666504,1.1832507848739624,0.2021935135126114
1771628579316511700,0.49851171875,10.643275260925293,1.1222338676452637,0.03349951654672623
1771628579335310800,0.517310791015625,10.218548774719238,1.2047861814498901,-0.13519448041915894
1771628579354110000,0.53610986328125,10.285548210144043,1.2502498626708984,0.4127618968486786
1771628579372909000,0.554908935546875,10.153943061828613,1.2394821643829346,0.4331009089946747
1771628579391708200,0.573708251953125,9.842875480651855,1.3615161180496216,0.07417750358581543
1771628579410507300,0.59250732421875,9.471988677978516,1.4069796800613403,-0.059820566326379776
1771628579429306400,0.611306396484375,9.535398483276367,1.412961721420288,0.1052841991186142
1771628579448105500,0.63010546875,9.640682220458984,1.3567304611206055,0.17228323221206665
1771628579466904800,0.64890478515625,9.891928672790527,1.2837493419647217,0.2727817893028259
1771628579485703700,0.66770361328125,9.773484230041504,1.2861422300338745,0.2512463629245758
1771628579504503000,0.6865029296875,9.730413436889648,1.3878371715545654,0.22851456701755524
1771628579523302100,0.70530224609375,9.7938232421875,1.4225330352783203,0.23330020904541016
1771628579542101200,0.724101318359375,9.89432144165039,1.3387842178344727,0.21655045449733734
1771628579560900400,0.742900390625,9.77826976776123,1.412961721420288,0.1950150430202484
1771628579579699500,0.761699462890625,9.744770050048828,1.4895321130752563,0.19740787148475647
1771628579598498600,0.78049853515625,9.835697174072266,1.3471591472625732,0.03469592705368996
1771628579617297700,0.799297607421875,9.768698692321777,1.2370892763137817,0.02632104977965355
1771628579636096800,0.8180966796875,9.92542839050293,1.2993026971817017,0.12203395366668701
1771628579654895900,0.836895751953125,10.06421184539795,1.3651052713394165,0.2679961323738098
1771628579673695200,0.8556953125,9.981659889221191,1.415354609489441,0.11485548317432404
1771628579692494000,0.874494140625,9.8871431350708,1.3866406679153442,0.2392822653055191
1771628579711293400,0.89329345703125,9.573683738708496,1.423729419708252,0.2871387302875519
1771628579730092500,0.912092529296875,9.482755661010742,1.4344971179962158,0.24167509377002716
1771628579748891600,0.9308916015625,9.695717811584473,1.3304094076156616,0.09212367236614227
1771628579767690800,0.949690673828125,9.756733894348145,1.404586911201477,0.013160524889826775
1771628579786489900,0.96848974609375,9.714859962463379,1.4488540887832642,0.22971096634864807
1771628579805289000,0.9872890625,10.053443908691406,1.4165509939193726,0.3481557071208954
1771628579824088000,1.006088134765625,10.2747802734375,1.384247899055481,0.33379876613616943
1771628579842887200,1.02488720703125,10.14437198638916,1.399801254272461,0.05024927482008934
1771628579861686300,1.043686279296875,9.789037704467773,1.4021940231323242,-0.11006984114646912
1771628579880485400,1.0624853515625,9.972088813781738,1.3794622421264648,-0.19621145725250244
1771628579899284700,1.08128466796875,10.024730682373047,1.4368900060653687,-0.13040883839130402
1771628579918083800,1.100083740234375,9.592825889587402,1.5170495510101318,0.08255238085985184
1771628579936883000,1.118883056640625,9.158528327941895,1.5804593563079834,0.23688943684101105
1771628579955682000,1.13768212890625,9.068798065185547,1.5481562614440918,-0.013160524889826775
1771628579974481200,1.156481201171875,9.454042434692383,1.4093725681304932,-0.1136590763926506
1771628579993280300,1.1752802734375,9.873982429504395,1.26699960231781,-0.04546362906694412
1771628580012079400,1.194079345703125,10.090533256530762,1.2550355195999146,0.02751746028661728
1771628580030878500,1.21287841796875,10.192228317260742,1.3148560523986816,0.020338991656899452
1771628580049677600,1.231677490234375,10.094121932983398,1.2550355195999146,0.07896314561367035
1771628580068476700,1.2504765625,10.161121368408203,1.2598211765289307,-0.0011964113218709826
1771628580087275800,1.26927587890625,9.944570541381836,1.4141582250595093,0.1495514214038849
1771628580106075100,1.2880751953125,9.586843490600586,1.4883357286453247,0.22013968229293823
1771628580124874200,1.306874267578125,9.379864692687988,1.4775680303573608,0.18065811693668365
1771628580143673300,1.32567333984375,9.7005033493042,1.4081761837005615,0.17347964644432068
1771628580162472400,1.344472412109375,10.054640769958496,1.3818551301956177,0.3194418251514435
1771628580181271600,1.363271484375,10.228120803833008,1.2993026971817017,0.19980068504810333
1771628580200070700,1.382070556640625,10.162318229675293,1.3280165195465088,-0.003589233849197626
1771628580218869800,1.400869873046875,9.780662536621094,1.4584254026412964,0.1052841991186142
1771628580237668900,1.4196689453125,9.643074989318848,1.456032633781433,0.3290131092071533
1771628580256468000,1.438468017578125,9.7938232421875,1.4500504732131958,0.259621262550354
1771628580275267300,1.457267333984375,9.77707290649414,1.4967105388641357,0.1663011759519577
1771628580294066200,1.476066162109375,9.724431037902832,1.495514154434204,0.15314064919948578
1771628580312865500,1.494865478515625,9.851250648498535,1.4261223077774048,0.33499518036842346
1771628580331664400,1.513664306640625,9.754341125488281,1.4081761837005615,0.20099709928035736
1771628580350463700,1.532463623046875,9.592825889587402,1.456032633781433,0.058624155819416046
1771628580369262800,1.551262939453125,9.614361763000488,1.4943177700042725,0.15672987699508667
1771628580388062000,1.57006201171875,10.01874828338623,1.3663017749786377,0.26440688967704773
1771628580406861000,1.588861083984375,10.395618438720703,1.1724830865859985,0.1052841991186142
1771628580425660200,1.60766015625,10.364511489868164,1.1413763761520386,0.017946170642971992
1771628580444459300,1.626459228515625,9.964909553527832,1.2394821643829346,0.17228323221206665
1771628580463258400,1.64525830078125,9.88833999633789,1.179661512374878,-0.02751746028661728
1771628580482057500,1.664057373046875,10.037891387939453,1.1665010452270508,0.037088751792907715
1771628580500856600,1.682856689453125,10.188638687133789,1.3902299404144287,0.364905446767807
1771628580519655700,1.70165576171875,9.818947792053223,1.6319050788879395,0.6352944374084473
1771628580538455000,1.720455078125,9.482755661010742,1.848455548286438,0.5144568681716919
1771628580557254100,1.739254150390625,8.579465866088867,1.9561325311660767,0.17108681797981262
1771628580576053200,1.75805322265625,8.496912956237793,1.7982062101364136,-0.08973085135221481
1771628580594852400,1.776852294921875,9.213563919067383,1.612762451171875,0.14715859293937683
1771628580613651500,1.7956513671875,9.597611427307129,1.3782658576965332,0.11724831163883209
1771628580632450600,1.814450439453125,10.052248001098633,1.3627125024795532,0.2871387302875519
1771628580651249700,1.833249755859375,10.265209197998047,1.4165509939193726,0.3840480446815491
1771628580670048800,1.852048828125,10.238887786865234,1.5002998113632202,0.23210379481315613
1771628580688848000,1.870847900390625,10.103693962097168,1.5326029062271118,0.0933200865983963
1771628580707647200,1.889647216796875,9.963713645935059,1.5242279767990112,0.1782652884721756
1771628580726446000,1.908446044921875,9.903892517089844,1.4500504732131958,0.2871387302875519
1771628580745245400,1.927245361328125,9.739984512329102,1.3615161180496216,0.13998012244701385
1771628580764044300,1.946044189453125,9.56650447845459,1.399801254272461,0.07537391036748886
1771628580782843600,1.96484375,9.54377269744873,1.451246976852417,0.22372891008853912
1771628580801642800,1.983642822265625,9.958928108215332,1.495514154434204,0.3720839321613312
1771628580820441900,2.00244189453125,10.066604614257812,1.4811571836471558,0.2787638306617737
1771628580839241000,2.021240966796875,9.91107177734375,1.4488540887832642,0.2560320198535919
1771628580858040000,2.0400400390625,9.950552940368652,1.4380863904953003,0.3026920557022095
1771628580876839200,2.058839111328125,10.15872859954834,1.3567304611206055,0.4043870270252228
1771628580895638300,2.07763818359375,10.03310489654541,1.3507484197616577,0.33020952343940735
1771628580914437400,2.096437255859375,9.77109146118164,1.404586911201477,0.28115665912628174
1771628580933236500,2.115236572265625,9.664610862731934,1.475175142288208,0.3170489966869354
1771628580952035600,2.13403564453125,9.54496955871582,1.5038890838623047,0.32542386651039124
1771628580970835000,2.1528349609375,9.619147300720215,1.4476577043533325,0.22013968229293823
1771628580989634000,2.171634033203125,9.67657470703125,1.3387842178344727,0.07417750358581543
1771628581008433200,2.19043310546875,9.93260669708252,1.3112667798995972,0.15314064919948578
1771628581027232300,2.209232177734375,10.039087295532227,1.3435698747634888,0.3936193287372589
1771628581046031400,2.22803125,10.024730682373047,1.357926845550537,0.3086741268634796
1771628581064830500,2.24683056640625,9.748359680175781,1.3938192129135132,0.15912270545959473
1771628581083629600,2.265629638671875,9.494720458984375,1.4967105388641357,0.2021935135126114
1771628581102428700,2.2844287109375,9.601201057434082,1.4991034269332886,0.4342973232269287
1771628581121227800,2.303227783203125,9.868000984191895,1.397408366203308,0.3529413342475891
1771628581140027000,2.32202685546875,9.645467758178711,1.3770694732666016,0.3074777126312256
1771628581158826000,2.340825927734375,9.525827407836914,1.399801254272461,0.25363919138908386
1771628581177625300,2.359625244140625,9.748359680175781,1.3986048698425293,0.16151553392410278
1771628581196424200,2.378424072265625,9.967302322387695,1.333998680114746,0.11006984114646912
1771628581215223600,2.3972236328125,9.9469633102417,1.3459627628326416,0.14117653667926788
1771628581234022700,2.416022705078125,9.903892517089844,1.4105689525604248,0.2907279431819916
1771628581252821800,2.43482177734375,9.830911636352539,1.475175142288208,0.4091726839542389
1771628581271620900,2.453620849609375,9.826126098632812,1.439282774925232,0.3194418251514435
1771628581290420000,2.472419921875,9.839286804199219,1.4033905267715454,0.349352091550827
1771628581309219000,2.491218994140625,9.701699256896973,1.5026925802230835,0.34576287865638733
1771628581328018200,2.51001806640625,9.682557106018066,1.5984054803848267,0.4139583110809326
1771628581346817300,2.5288173828125,9.602396965026855,1.6378871202468872,0.3888336718082428
1771628581365616400,2.547616455078125,9.365508079528809,1.588834285736084,0.22612173855304718
1771628581384415500,2.56641552734375,9.601201057434082,1.612762451171875,0.2189432680606842
1771628581403214600,2.585214599609375,10.577472686767578,1.9609181880950928,-0.0323031060397625
1771628581422013700,2.604013671875,10.398011207580566,1.7371892929077148,1.470389485359192
1771628581440813000,2.62281298828125,10.040284156799316,1.8305093050003052,0.3840480446815491
1771628581459612200,2.641612060546875,9.142974853515625,1.8556339740753174,0.6975077986717224
1771628581478411300,2.660411376953125,9.121439933776855,1.9716858863830566,0.2907279431819916
1771628581497210400,2.67921044921875,9.620343208312988,1.94297194480896,0.35054850578308105
1771628581516009500,2.698009521484375,10.005587577819824,1.7132610082626343,0.16749759018421173
1771628581534808600,2.71680859375,9.93978500366211,1.6055840253829956,0.3409772217273712
1771628581553607700,2.735607666015625,9.674181938171387,1.690529227256775,0.0933200865983963
1771628581572406800,2.75440673828125,9.829715728759766,1.683350682258606,-0.08973085135221481
1771628581591206000,2.773205810546875,9.967302322387695,1.5840486288070679,-0.009571290574967861
1771628581610005000,2.7920048828125,9.891928672790527,1.4871392250061035,0.05742774158716202
1771628581628804000,2.81080419921875,9.707681655883789,1.3674981594085693,-0.016749758273363113
1771628581647603500,2.829603515625,9.456435203552246,1.290927767753601,-0.15912270545959473
1771628581666402300,2.84840234375,9.30449104309082,1.1940184831619263,-0.08973085135221481
1771628581685201700,2.86720166015625,9.355937004089355,1.1497513055801392,-0.18903298676013947
1771628581704000800,2.886000732421875,9.134600639343262,1.2693923711776733,-0.3936193287372589
1771628581722799900,2.9047998046875,8.794819831848145,1.592423439025879,-0.5120640397071838
1771628581741599000,2.923598876953125,8.863015174865723,1.8939191102981567,-0.623330295085907
1771628581760398000,2.942398193359375,10.13479995727539,1.9178473949432373,-0.486939400434494
1771628581779197200,2.961197265625,11.345568656921387,1.7419748306274414,-0.2715853750705719
1771628581797996300,2.979996337890625,12.17109203338623,1.561316728591919,-0.18903298676013947
1771628581816795400,2.99879541015625,11.856435775756836,1.5517455339431763,-0.3696911036968231
1771628581835594500,3.017594482421875,11.192427635192871,1.5397813320159912,-0.3517449200153351
1771628581854393600,3.0363935546875,10.293923377990723,1.456032633781433,-0.3397808074951172
1771628581873193000,3.05519287109375,9.390632629394531,1.4452649354934692,-0.6221339106559753
1771628581891991800,3.07399169921875,9.749555587768555,1.2873386144638062,-1.022931694984436
1771628581910791200,3.092791259765625,9.871589660644531,1.2478569746017456,-0.3158525824546814
1771628581929590000,3.111590087890625,8.93958568572998,1.451246976852417,0.20817556977272034
1771628581948389400,3.130389404296875,8.23848819732666,1.8448662757873535,0.35413774847984314
1771628581967188500,3.1491884765625,7.8424763679504395,2.03629207611084,0.41994038224220276
1771628581985987600,3.167987548828125,8.037490844726562,2.035095691680908,0.10169496387243271
1771628582004786700,3.18678662109375,8.94556713104248,1.8987047672271729,0.05742774158716202
1771628582023585800,3.205585693359375,9.482755661010742,1.7994025945663452,0.15194423496723175
1771628582042385000,3.224385009765625,9.805787086486816,1.674975872039795,-0.1986042857170105
1771628582061184000,3.24318408203125,10.792826652526855,1.6857435703277588,-0.6340979933738708
1771628582079983000,3.261983154296875,10.945966720581055,1.8149559497833252,-0.641276478767395
1771628582098782200,3.2807822265625,10.169496536254883,1.9310078620910645,-0.6891329288482666
1771628582117581300,3.299581298828125,9.485149383544922,1.7682958841323853,-0.5024927258491516
1771628582145780200,3.3277802734375,10.102497100830078,1.4608181715011597,-0.397208571434021
1771628582164579000,3.3465791015625,10.48654556274414,1.3698909282684326,-0.23688943684101105
1771628582183378400,3.36537841796875,10.713863372802734,1.412961721420288,-0.28235307335853577
1771628582202177500,3.384177490234375,10.572687149047852,1.568495273590088,-0.15912270545959473
1771628582220976600,3.4029765625,10.017552375793457,1.7216359376907349,-0.12203395366668701
1771628582239775700,3.421775634765625,9.66819953918457,1.801795482635498,-0.13878370821475983
1771628582258574800,3.440574951171875,9.963713645935059,1.8400806188583374,-0.08733802288770676
1771628582277374000,3.4593740234375,10.344172477722168,1.7443677186965942,-0.48574298620224
1771628582296173000,3.478173095703125,10.435099601745605,1.5326029062271118,-0.7441678643226624
1771628582314972200,3.49697216796875,10.375279426574707,1.34476637840271,-0.8578268885612488
1771628582333771300,3.515771240234375,10.250852584838867,1.2035897970199585,-0.7310073375701904
1771628582352570400,3.5345703125,10.268798828125,1.1988041400909424,-0.6687939167022705
1771628582371369700,3.55336962890625,9.980463027954102,1.2741780281066895,-0.45583271980285645
1771628582390168600,3.57216845703125,9.595218658447266,1.470389485359192,-0.1986042857170105
1771628582408968000,3.590968017578125,9.525827407836914,1.5708880424499512,0.27038896083831787
1771628582427766800,3.609766845703125,9.759127616882324,1.6414763927459717,0.5635097622871399
1771628582446566100,3.628566162109375,9.839286804199219,1.8269200325012207,0.3361915946006775
1771628582465365200,3.647365234375,9.873982429504395,1.9692929983139038,0.10887342691421509
1771628582484164400,3.666164306640625,10.098908424377441,1.872383713722229,-0.259621262550354
1771628582502963500,3.68496337890625,10.518848419189453,1.6630117893218994,-0.37447673082351685
1771628582521762600,3.703762451171875,10.41476058959961,1.3806586265563965,0.11724831163883209
1771628582540561700,3.722561767578125,9.967302322387695,1.1234302520751953,0.9092726111412048
1771628582559360800,3.74136083984375,9.812965393066406,1.022931694984436,1.2287144660949707
1771628582578159900,3.760159912109375,9.455238342285156,0.9631111025810242,1.31365966796875
1771628582596959000,3.778958984375,8.60459041595459,1.0205388069152832,1.2957134246826172
1771628582615758000,3.797758056640625,8.055437088012695,1.2646067142486572,1.1353943347930908
1771628582634557400,3.816557373046875,7.952546119689941,1.6666009426116943,0.9020941257476807
1771628582653356300,3.835356201171875,8.34138011932373,1.9417755603790283,0.5024927258491516
1771628582672155600,3.85415576171875,9.023334503173828,2.0207388401031494,0.19740787148475647
1771628582690954500,3.87295458984375,10.30469036102295,1.7850457429885864,0.09092725813388824
1771628582709753900,3.89175390625,11.576476097106934,1.3698909282684326,0.061016976833343506
1771628582728553000,3.910552978515625,12.20339584350586,0.9212366938591003,0.2512463629245758
1771628582747352000,3.92935205078125,11.600403785705566,0.8291130661964417,0.5407779216766357
1771628582766151200,3.948151123046875,10.030712127685547,1.1748759746551514,0.6149554252624512
1771628582784950300,3.9669501953125,8.662017822265625,1.4691931009292603,0.7417750358581543
1771628582803749400,3.985749267578125,8.087740898132324,1.6211373805999756,0.8961120843887329
1771628582822548500,4.004548583984375,8.193024635314941,1.7072789669036865,1.0205388069152832
1771628582841347600,4.02334765625,8.4502534866333,1.7958134412765503,1.1078768968582153
1771628582860146700,4.042146728515625,8.919246673583984,1.7802600860595703,0.9810572862625122
1771628582878945800,4.06094580078125,9.535398483276367,1.7276179790496826,0.8805587291717529
1771628582897745200,4.0797451171875,10.007980346679688,1.5553346872329712,1.1114661693572998
1771628582916544000,4.0985439453125,10.51645565032959,1.4009976387023926,1.3794622421264648
1771628582935343400,4.11734326171875,10.543972969055176,1.3986048698425293,1.2610175609588623
1771628582954142200,4.13614208984375,9.845269203186035,1.6175481081008911,0.6951149702072144
1771628582972941600,4.154941650390625,8.95394229888916,1.8137595653533936,0.2967100143432617
1771628582991740700,4.17374072265625,8.876175880432129,1.8400806188583374,0.16749759018421173
1771628583010539800,4.192539794921875,9.345169067382812,1.8628123998641968,0.22851456701755524
1771628583029339000,4.2113388671875,9.866804122924805,1.9465612173080444,0.3326023519039154
1771628583048138000,4.230137939453125,10.441082000732422,1.9992033243179321,0.7226324677467346
1771628583066937000,4.24893701171875,10.853843688964844,2.011167526245117,0.8087740540504456
1771628583085736200,4.267736083984375,10.773683547973633,2.090130567550659,0.5276173949241638
1771628583104535300,4.286535400390625,10.182656288146973,2.2025933265686035,0.22971096634864807
1771628583123334400,4.30533447265625,9.729216575622559,2.0315065383911133,-0.10169496387243271
1771628583142133500,4.324133544921875,10.603793144226074,1.4799607992172241,-0.19740787148475647
1771628583160932600,4.3429326171875,11.936595916748047,1.0959128141403198,0.24167509377002716
1771628583179731700,4.361731689453125,11.576476097106934,1.2179467678070068,0.3900300860404968
1771628583198531000,4.380531005859375,10.265209197998047,1.5302101373672485,0.4833501875400543
1771628583217330000,4.399329833984375,9.439684867858887,1.797009825706482,0.6209374666213989
1771628583236129300,4.41812939453125,8.823533058166504,1.8496519327163696,0.5587241053581238
1771628583254928400,4.436928466796875,8.731410026550293,1.6929219961166382,0.40319061279296875
1771628583273727500,4.4557275390625,8.96231746673584,1.439282774925232,0.04546362906694412
1771628583292526600,4.474526611328125,9.116654396057129,1.23589289188385,-0.07776673883199692
1771628583311325700,4.49332568359375,9.298508644104004,0.8614161610603333,-0.08733802288770676
1771628583330124800,4.512124755859375,9.594022750854492,0.35533416271209717,0.05383851006627083
1771628583348924000,4.530923828125,9.717252731323242,0.02871387079358101,0.28235307335853577
1771628583377122600,4.55912255859375,9.65503978729248,0.016749758273363113,0.3900300860404968
1771628583395921700,4.577921630859375,9.177671432495117,0.23210379481315613,0.2021935135126114
1771628583414720800,4.596720703125,9.452845573425293,0.47617170214653015,0.19381862878799438
1771628583433519900,4.615519775390625,9.528220176696777,0.8757730722427368,0.07776673883199692
1771628583452319000,4.634319091796875,9.527023315429688,1.2538390159606934,0.08853443711996078
1771628583471118000,4.6531181640625,9.936196327209473,1.31365966796875,0.016749758273363113
1771628583489917400,4.67191748046875,10.683953285217285,1.1617153882980347,-0.2356930375099182
1771628583508716500,4.690716552734375,10.700702667236328,0.9104689955711365,-0.711864709854126
1771628583527515600,4.709515625,10.74257755279541,0.7334001660346985,-0.9595218896865845
1771628583546314800,4.728314697265625,10.090533256530762,0.7286145091056824,-0.8183453679084778
1771628583565113900,4.74711376953125,9.113064765930176,0.9511470198631287,-0.8949156403541565
1771628583583913000,4.765912841796875,8.498109817504883,1.0791629552841187,-0.7238288521766663
1771628583602712000,4.784712158203125,8.69791030883789,1.01814603805542,-0.6867401003837585
1771628583621511200,4.80351123046875,9.291330337524414,1.1078768968582153,-0.50129634141922
1771628583640310300,4.822310302734375,9.91705322265625,1.1473584175109863,-0.259621262550354
1771628583668509000,4.850509033203125,10.715060234069824,0.9188438653945923,-0.5443671345710754
1771628583687308000,4.86930810546875,10.631311416625977,0.885344386100769,-0.32662028074264526
1771628583706107100,4.888107177734375,10.600204467773438,0.9200403094291687,-0.1136590763926506
1771628583724906500,4.906906494140625,10.26760196685791,0.9882357716560364,0.08015955984592438
1771628583743705300,4.925705322265625,9.639486312866211,1.0265209674835205,0.14476576447486877
1771628583762504700,4.944504638671875,9.162117958068848,1.1940184831619263,-0.02273181453347206
1771628583781303600,4.963303466796875,9.024530410766602,1.2167502641677856,-0.2835494875907898
1771628583800103000,4.98210302734375,9.154939651489258,1.124626636505127,-0.4630111753940582
1771628583818902000,5.000902099609375,9.373882293701172,0.8015955686569214,-0.3888336718082428
1771628583837701000,5.019701171875,9.870393753051758,0.7058826684951782,-0.40319061279296875
1771628583856500200,5.038500244140625,10.15155029296875,0.7716853022575378,-0.2763710021972656
1771628583875299300,5.05729931640625,10.730612754821777,0.8315058946609497,0.035892341285943985
1771628583894098400,5.076098388671875,11.437692642211914,0.8889335989952087,0.25004997849464417
1771628583912897500,5.0948974609375,11.302497863769531,0.8769695162773132,0.2392822653055191
1771628583931696600,5.113696533203125,10.49252700805664,0.9774680733680725,0.26919254660606384
1771628583950495700,5.132495849609375,10.435099601745605,1.1341979503631592,0.21655045449733734
1771628583969294800,5.151294921875,10.62413215637207,1.1318050622940063,0.08733802288770676
1771628583988094000,5.170093994140625,10.87298583984375,0.836291491985321,0.38763725757598877
1771628584006893000,5.18889306640625,11.2247314453125,0.5491527915000916,0.7872386574745178
1771628584025692200,5.207692138671875,10.740184783935547,0.4426721930503845,1.2813565731048584
1771628584044491300,5.2264912109375,10.009177207946777,0.5467599630355835,1.6426727771759033
1771628584063290400,5.245290283203125,8.788837432861328,0.7728816866874695,1.836491346359253
1771628584082089700,5.26408984375,8.103293418884277,0.9882357716560364,1.8867406845092773
1771628584100888600,5.282888671875,8.353343963623047,1.1880364418029785,1.6809579133987427
1771628584119688000,5.30168798828125,8.863015174865723,1.3076776266098022,1.3806586265563965
1771628584138486800,5.32048681640625,9.089137077331543,1.3555340766906738,0.9475577473640442
1771628584157286100,5.3392861328125,9.337990760803223,1.3244273662567139,0.48813581466674805
1771628584176085200,5.358085205078125,9.814162254333496,1.1162517070770264,-0.08374879509210587
1771628584194884400,5.37688427734375,10.426724433898926,0.9128618240356445,-0.41515472531318665
1771628584213683500,5.395683349609375,10.560722351074219,0.8554341197013855,-0.15912270545959473
1771628584232482600,5.414482666015625,10.009177207946777,1.0133603811264038,0.5419743061065674
1771628584251281700,5.43328173828125,9.658628463745117,1.2430713176727295,0.6675975322723389
1771628584270080800,5.452080810546875,9.001798629760742,1.4033905267715454,0.31824541091918945
1771628584288879900,5.4708798828125,9.129815101623535,1.5302101373672485,0.22372891008853912
1771628584307679000,5.489678955078125,9.314062118530273,1.4321043491363525,0.4737788736820221
1771628584326478000,5.50847802734375,9.31884765625,1.3746765851974487,0.6616154313087463
1771628584345277200,5.527277099609375,9.21834945678711,1.3519448041915894,0.6340979933738708
1771628584364076300,5.546076171875,9.352347373962402,1.3423734903335571,0.7334001660346985
1771628584382875600,5.564875732421875,9.708877563476562,1.3663017749786377,0.6819544434547424
1771628584401674500,5.583674560546875,9.670592308044434,1.4979069232940674,0.7010970115661621
1771628584420473900,5.602473876953125,9.280562400817871,1.643869161605835,0.9427721500396729
1771628584439273000,5.62127294921875,9.156135559082031,1.7838492393493652,0.5647061467170715
1771628584467471400,5.649471435546875,10.107282638549805,1.5720844268798828,0.8781659007072449
1771628584486270700,5.668270751953125,11.011770248413086,1.293320655822754,1.0289137363433838
1771628584505069800,5.68706982421875,11.528619766235352,1.1210373640060425,1.2741780281066895
1771628584523869000,5.705868896484375,11.196017265319824,1.2550355195999146,1.1330015659332275
1771628584542668000,5.72466796875,10.729416847229004,1.552941918373108,0.6891329288482666
1771628584561467100,5.743467041015625,10.40758228302002,1.6067804098129272,0.02632104977965355
1771628584580266200,5.762266357421875,10.652846336364746,1.3830515146255493,-0.3936193287372589
1771628584599065300,5.7810654296875,10.919646263122559,1.1808580160140991,-0.3074777126312256
1771628584617864400,5.799864501953125,10.730612754821777,1.0492527484893799,0.27038896083831787
1771628584636663600,5.81866357421875,10.423135757446289,0.8530412912368774,0.7381857633590698
1771628584655462700,5.837462646484375,10.13599681854248,0.6903293132781982,0.9954141974449158
1771628584674261800,5.85626171875,9.967302322387695,0.537188708782196,1.3651052713394165
1771628584693060900,5.875060791015625,10.776076316833496,0.5599204897880554,1.3316057920455933
1771628584711860000,5.89385986328125,10.704292297363281,0.6245267391204834,0.9786644577980042
1771628584730659000,5.9126591796875,10.107282638549805,0.6305087804794312,0.6460621356964111
1771628584749458200,5.931458251953125,9.870393753051758,0.5120640397071838,0.16869398951530457
1771628584768257500,5.950257568359375,9.4121675491333,0.2787638306617737,0.05144568532705307
1771628584787056400,5.969056396484375,8.982656478881836,0.11844471842050552,0.0526420995593071
1771628584805855700,5.987855712890625,9.084351539611816,-0.09092725813388824,0.06340979784727097
1771628584824654600,6.006654541015625,9.244669914245605,-0.058624155819416046,0.20578274130821228
1771628584843454000,6.025453857421875,8.726624488830566,0.08015955984592438,0.4223332107067108
1771628584862253000,6.044253173828125,8.289934158325195,0.26201409101486206,0.4534398913383484
1771628584881052200,6.06305224609375,9.306883811950684,0.40677985548973083,0.8374879360198975
1771628584899851300,6.081851318359375,10.372885704040527,0.5264210104942322,0.867398202419281
1771628584918650400,6.100650390625,10.230513572692871,0.8279166221618652,0.5335994362831116
1771628584937449500,6.119449462890625,9.31047248840332,1.1593226194381714,0.3038884699344635
1771628584956248600,6.13824853515625,8.752944946289062,1.28255295753479,0.0933200865983963
1771628584975047700,6.157047607421875,8.809176445007324,1.317248821258545,-0.11006984114646912
1771628584993846800,6.1758466796875,9.361918449401855,1.0037890672683716,-0.4163511395454407
1771628585012646000,6.19464599609375,10.234102249145508,0.5419743061065674,-0.5527420043945312
1771628585031445000,6.213445068359375,10.26640510559082,0.41515472531318665,-0.30508488416671753
1771628585050244000,6.232244140625,9.632308006286621,0.5252245664596558,-0.29312077164649963
1771628585069043200,6.251043212890625,9.57607650756836,0.8781659007072449,-0.47617170214653015
1771628585087842300,6.26984228515625,9.280562400817871,1.1629117727279663,-0.641276478767395
1771628585106641400,6.288641357421875,9.169296264648438,1.246660590171814,-0.48095735907554626
1771628585125440800,6.307440673828125,9.57607650756836,1.2179467678070068,-0.21774685382843018
1771628585144239600,6.326239501953125,9.919445991516113,1.1653046607971191,-0.058624155819416046
1771628585163039000,6.3450390625,9.952945709228516,1.1174482107162476,-0.1423729509115219
1771628585181837800,6.363837890625,10.065408706665039,0.9726824164390564,0.14476576447486877
1771628585200637200,6.38263720703125,10.321440696716309,0.8123632669448853,0.4007977843284607
1771628585219436300,6.401436279296875,10.350153923034668,0.867398202419281,0.5252245664596558
1771628585238235400,6.4202353515625,10.724631309509277,1.1150553226470947,0.7238288521766663
1771628585257034500,6.439034423828125,10.87298583984375,1.207179069519043,0.6891329288482666
1771628585275833600,6.45783349609375,11.058429718017578,0.9834501147270203,0.7094719409942627
1771628585294632700,6.4766328125,11.952149391174316,0.7812566161155701,0.6843472719192505
1771628585313431800,6.495431884765625,11.571690559387207,0.7812566161155701,0.3206382393836975
1771628585332231000,6.51423095703125,9.774680137634277,0.9690931439399719,0.02632104977965355
1771628585351030000,6.533030029296875,9.066405296325684,0.9451649188995361,-0.07776673883199692
1771628585369829000,6.5518291015625,9.426525115966797,0.5587241053581238,0.07657032459974289
1771628585388628200,6.570628173828125,9.88833999633789,0.2273181527853012,0.4103690981864929
1771628585407427300,6.58942724609375,10.437492370605469,0.06939185410737991,1.0552347898483276
1771628585426226400,6.608226318359375,10.348958015441895,0.3002992272377014,1.6079767942428589
1771628585445025500,6.627025634765625,9.383454322814941,0.8051848411560059,1.6893328428268433
1771628585463824600,6.64582470703125,8.719446182250977,1.2406785488128662,1.2646067142486572
1771628585482624000,6.6646240234375,8.781659126281738,1.4404792785644531,0.898504912853241
1771628585501422800,6.6834228515625,9.280562400817871,1.4297115802764893,1.0325030088424683
1771628585529621500,6.71162158203125,9.589237213134766,1.1509476900100708,0.882951557636261
1771628585548420900,6.7304208984375,10.159924507141113,0.8733802437782288,0.5814558863639832
1771628585576619500,6.75861962890625,10.892128944396973,0.6340979933738708,0.5838487148284912
1771628585595418600,6.777418701171875,9.974481582641602,0.8015955686569214,0.8446664214134216
1771628585614217700,6.7962177734375,8.882157325744629,1.0492527484893799,0.9080761671066284
1771628585633016800,6.815016845703125,8.166703224182129,1.2131611108779907,0.8386843204498291
1771628585651816000,6.83381591796875,8.097311973571777,1.3004990816116333,0.794417142868042
1771628585670615000,6.852614990234375,8.338987350463867,1.3770694732666016,0.6460621356964111
1771628585689414100,6.8714140625,8.683553695678711,1.4093725681304932,0.43908295035362244
1771628585708213200,6.890213134765625,9.549755096435547,1.3902299404144287,0.44386860728263855
1771628585727012400,6.909012451171875,10.331011772155762,1.3651052713394165,0.6173482537269592
1771628585745811500,6.9278115234375,10.777273178100586,1.4213366508483887,0.7525427341461182
1771628585764610600,6.946610595703125,10.774880409240723,1.3902299404144287,0.8327022790908813
1771628585783409700,6.96540966796875,10.451848983764648,1.399801254272461,0.8003991842269897
1771628585802208800,6.984208740234375,9.80219841003418,1.5756736993789673,0.6592226624488831
1771628585821008000,7.0030078125,9.358329772949219,1.7754744291305542,0.6137589812278748
1771628585839807000,7.021806884765625,9.528220176696777,1.6546368598937988,0.30149564146995544
1771628585858606000,7.040606201171875,10.271191596984863,1.3148560523986816,0.11605189740657806
1771628585877405200,7.0594052734375,10.465009689331055,1.184447169303894,0.2883351147174835
1771628585896204300,7.078204345703125,9.853643417358398,1.2598211765289307,0.5623133182525635
1771628585924403000,7.10640283203125,9.693324089050293,1.643869161605835,0.6496513485908508
1771628585943202300,7.125202392578125,9.573683738708496,1.8855443000793457,0.4654040038585663
1771628585962001200,7.144001220703125,10.01994514465332,1.6785650253295898,-0.19262222945690155
1771628585980800500,7.162800537109375,11.270195007324219,1.1988041400909424,-0.36729827523231506
1771628585999599600,7.181599609375,12.253644943237305,0.9918249845504761,0.380458801984787
1771628586018398700,7.200398681640625,11.23908805847168,1.0169496536254883,1.109073281288147
1771628586046597400,7.228597412109375,10.834700584411621,0.7537391185760498,1.6139588356018066
1771628586065396500,7.247396484375,10.755738258361816,0.4534398913383484,1.0671988725662231
1771628586084195600,7.266195556640625,10.50090217590332,0.25722843408584595,0.5826523303985596
1771628586102994700,7.28499462890625,10.447063446044922,0.040677983313798904,0.5324030518531799
1771628586121793800,7.303793701171875,10.236495018005371,-0.014356935396790504,0.7704889178276062
1771628586140593000,7.322593017578125,9.073583602905273,0.22133609652519226,0.5335994362831116
1771628586159392000,7.34139208984375,7.8556365966796875,0.550349235534668,0.2153540402650833
1771628586178191000,7.360191162109375,7.326822757720947,0.6544370055198669,-0.12083754688501358
1771628586196990200,7.378990234375,7.732406139373779,0.4259224236011505,-0.27397820353507996
1771628586215789300,7.397789306640625,9.06999397277832,0.11006984114646912,0.13040883839130402
1771628586234588400,7.41658837890625,10.195816993713379,-0.037088751792907715,0.6867401003837585
1771628586253387500,7.435387451171875,10.760523796081543,0.1782652884721756,1.073180913925171
1771628586272186600,7.4541865234375,10.475777626037598,0.6675975322723389,0.849452018737793
1771628586290985700,7.47298583984375,9.615557670593262,1.1521440744400024,0.6005984544754028
1771628586309784800,7.491784912109375,8.999405860900879,1.4452649354934692,0.349352091550827
1771628586328584000,7.510583984375,9.407382011413574,1.3387842178344727,0.50129634141922
1771628586347383000,7.529383056640625,10.26760196685791,1.0241280794143677,0.30508488416671753
1771628586366182100,7.54818212890625,10.579865455627441,0.7561319470405579,-0.137587308883667
1771628586384981500,7.5669814453125,10.133604049682617,0.760917603969574,-0.46420758962631226
1771628586403780400,7.5857802734375,9.041280746459961,0.9212366938591003,-0.6173482537269592
1771628586422579700,7.604579833984375,8.382058143615723,1.0564311742782593,-0.4426721930503845
1771628586441378600,7.623378662109375,8.425128936767578,1.0528420209884644,-0.42831525206565857
1771628586460178000,7.642177978515625,8.986245155334473,1.0301101207733154,-0.33379876613616943
1771628586478977000,7.66097705078125,9.037691116333008,1.1162517070770264,-0.09690931439399719
1771628586497776000,7.679776123046875,9.097511291503906,1.1437692642211914,0.21774685382843018
1771628586516575200,7.6985751953125,9.817750930786133,1.0253244638442993,0.42711883783340454
1771628586544774000,7.72677392578125,11.111071586608887,0.7561319470405579,0.5240281820297241
1771628586563573000,7.745572998046875,11.401800155639648,0.8841479420661926,0.9403793215751648
1771628586582372000,7.7643720703125,10.817951202392578,0.9020941257476807,0.6664010882377625
1771628586601171200,7.783171142578125,10.540383338928223,0.9092726111412048,0.5515456199645996
1771628586619970300,7.80197021484375,10.992627143859863,1.1258230209350586,0.5706881880760193
1771628586638769400,7.820769287109375,11.425727844238281,1.1353943347930908,0.6484549641609192
1771628586657568500,7.839568603515625,11.7056884765625,0.8578268885612488,0.5838487148284912
1771628586676367600,7.85836767578125,11.241480827331543,0.4701896607875824,0.45942193269729614
1771628586695166700,7.877166748046875,10.506884574890137,0.22971096634864807,0.5180460810661316
1771628586713965800,7.8959658203125,10.152746200561523,0.21176479756832123,0.5240281820297241
1771628586732765000,7.914764892578125,9.247062683105469,0.2907279431819916,0.4019941985607147
1771628586751564000,7.93356396484375,8.313861846923828,0.47617170214653015,0.3768695592880249
1771628586770363100,7.952363037109375,8.179863929748535,0.9427721500396729,0.5240281820297241
1771628586789162200,7.971162353515625,8.234899520874023,1.2729816436767578,0.776470959186554
1771628586807961300,7.98996142578125,9.044869422912598,1.397408366203308,1.2406785488128662
1771628586826760400,8.008760498046875,9.627521514892578,1.353141188621521,1.200000524520874
1771628586845559600,8.0275595703125,9.988838195800781,1.207179069519043,0.9942178130149841
1771628586864358700,8.046358642578125,10.583454132080078,0.8841479420661926,0.7190431952476501
1771628586883157800,8.06515771484375,11.240283966064453,0.6101697683334351,0.3326023519039154
1771628586901956900,8.083956787109376,11.103893280029297,0.5300102233886719,0.44745782017707825
1771628586920756000,8.102755859375,9.814162254333496,0.7238288521766663,0.7238288521766663
1771628586939555000,8.12155517578125,8.639286041259766,1.0265209674835205,0.6675975322723389
1771628586958354200,8.140354248046876,7.975277900695801,1.2538390159606934,0.5778666734695435
1771628586977153300,8.1591533203125,7.774280548095703,1.3411771059036255,0.45583271980285645
1771628586995952600,8.17795263671875,8.394021987915039,1.3124631643295288,0.8099704384803772
1771628587014751500,8.19675146484375,9.091529846191406,1.2490534782409668,0.9343972206115723
1771628587033550800,8.21555078125,9.594022750854492,1.3603196144104004,1.0037890672683716
1771628587052349700,8.234349609375,9.91107177734375,1.5170495510101318,1.0827522277832031
1771628587071149000,8.253149169921874,10.091729164123535,1.5649060010910034,1.1306086778640747
1771628587089948200,8.2719482421875,10.354940414428711,1.5385849475860596,1.2263215780258179
1771628587108747300,8.290747314453125,10.046265602111816,1.5170495510101318,1.0492527484893799
1771628587127546400,8.30954638671875,9.93978500366211,1.4847464561462402,0.5288137793540955
1771628587146345500,8.328345458984375,10.236495018005371,1.2131611108779907,0.35054850578308105
1771628587165144600,8.34714453125,10.38365364074707,1.062413215637207,0.5754738450050354
1771628587183943700,8.365943603515625,9.789037704467773,1.1784651279449463,0.6735795736312866
1771628587202742800,8.38474267578125,9.073583602905273,1.4691931009292603,0.5790630578994751
1771628587221542000,8.4035419921875,9.066405296325684,1.8065811395645142,0.21774685382843018
1771628587240341000,8.422341064453125,9.267401695251465,1.934597134590149,-0.11246266216039658
1771628587259140000,8.44114013671875,9.962516784667969,1.7371892929077148,-1.0061819553375244
1771628587277939200,8.459939208984375,11.225927352905273,1.3603196144104004,-1.1162517070770264
1771628587296738300,8.47873828125,12.034701347351074,1.1330015659332275,-0.1818545162677765
1771628587315537400,8.497537353515625,11.793025970458984,1.0648061037063599,0.8207381963729858
1771628587334336500,8.51633642578125,10.754541397094727,0.8207381963729858,1.456032633781433
1771628587353135600,8.535135498046875,10.462616920471191,0.37806597352027893,1.6426727771759033
1771628587371934700,8.553934814453125,10.993824005126953,0.09451649338006973,1.4273186922073364
1771628587390733800,8.57273388671875,10.832307815551758,-0.3170489966869354,1.0325030088424683
1771628587409533000,8.591532958984375,10.96869945526123,-0.5431707501411438,0.6376872062683105
1771628587428332000,8.61033203125,10.64806079864502,-0.2955136001110077,0.2225325107574463
1771628587447131100,8.629131103515626,9.024530410766602,0.15553347766399384,0.12083754688501358
1771628587465930200,8.64793017578125,8.054241180419922,0.45224347710609436,0.003589233849197626
1771628587484729300,8.666729248046876,8.274380683898926,0.3684946894645691,-0.1746760457754135
1771628587503528400,8.685528564453126,9.259027481079102,0.26560330390930176,0.003589233849197626
1771628587522327600,8.70432763671875,10.26042366027832,0.09690931439399719,0.5096712112426758
1771628587541126700,8.723126708984376,10.87298583984375,0.061016976833343506,0.8949156403541565
1771628587559925800,8.74192578125,10.339386940002441,0.28594231605529785,0.7716853022575378
1771628587588124400,8.77012451171875,8.688339233398438,1.0911271572113037,0.5635097622871399
1771628587606923500,8.788923583984374,7.983652591705322,1.5002998113632202,0.6747759580612183
1771628587625722600,8.80772265625,7.897511005401611,1.4165509939193726,0.6759724020957947
1771628587644521700,8.826521728515624,8.920442581176758,0.916451096534729,0.363709032535553
1771628587663321000,8.845321044921874,9.754341125488281,0.4737788736820221,0.0526420995593071
1771628587682120000,8.864119873046874,9.897911071777344,0.39960137009620667,0.0323031060397625
1771628587700919300,8.882919189453125,9.419346809387207,0.6664010882377625,0.16151553392410278
1771628587719718100,8.90171826171875,9.175278663635254,0.973878800868988,0.03349951654672623
1771628587738517500,8.920517578125,9.504291534423828,1.077966570854187,-0.07178468257188797
1771628587757316600,8.939316650390625,9.824930191040039,1.1066805124282837,-0.038285162299871445
1771628587785515000,8.967514892578125,9.722038269042969,1.0815558433532715,-0.21176479756832123
1771628587804314400,8.986314453125,10.371689796447754,0.8171489238739014,-0.36610186100006104
1771628587823113500,9.005113525390625,10.808380126953125,0.5718846321105957,-0.13519448041915894
1771628587841912300,9.023912353515625,10.375279426574707,0.5946164131164551,-0.10289137065410614
1771628587860711700,9.042711669921875,9.812965393066406,0.7250252366065979,-0.05144568532705307
1771628587879510500,9.061510498046875,9.675378799438477,0.9343972206115723,0.13280165195465088
1771628587898310000,9.080309814453125,10.39083194732666,1.0959128141403198,0.4342973232269287
1771628587917109000,9.09910888671875,11.328819274902344,1.1629117727279663,1.093519926071167
1771628587935908000,9.117908203125,12.479766845703125,1.0959128141403198,1.4500504732131958
1771628587954707200,9.136707275390625,12.922438621520996,0.8721838593482971,0.9391828775405884
1771628587973506300,9.15550634765625,12.308679580688477,0.7166503667831421,0.06340979784727097
1771628587992305400,9.174305419921875,10.978270530700684,0.7812566161155701,-0.7537391185760498
1771628588011104500,9.1931044921875,9.53061294555664,0.7238288521766663,-0.7561319470405579
1771628588029903600,9.211903564453126,8.957531929016113,0.3242274820804596,-0.23688943684101105
1771628588048702700,9.23070263671875,9.817750930786133,-0.037088751792907715,0.22492532432079315
1771628588067501800,9.249501708984376,10.072587013244629,-0.058624155819416046,0.4175475537776947
1771628588086301000,9.268301025390626,9.144171714782715,0.3433700501918793,0.7166503667831421
1771628588105100000,9.28710009765625,8.127222061157227,0.9595218896865845,0.8003991842269897
1771628588123899100,9.305899169921876,6.981060028076172,1.3603196144104004,0.6149554252624512
1771628588142698200,9.3246982421875,7.229913711547852,1.3435698747634888,0.916451096534729
1771628588161497300,9.343497314453124,9.078369140625,1.0683952569961548,1.3519448041915894
1771628588180296400,9.36229638671875,10.303494453430176,0.5946164131164551,1.5397813320159912
1771628588199095600,9.381095458984374,11.335997581481934,0.2392822653055191,1.3698909282684326
1771628588217894700,9.399894775390624,11.59681510925293,0.10648060590028763,1.0061819553375244
1771628588236693800,9.41869384765625,10.189835548400879,0.39960137009620667,0.6017948985099792
1771628588255492900,9.437492919921874,8.935996055603027,0.882951557636261,0.22372891008853912
1771628588274292000,9.4562919921875,8.384450912475586,1.1772687435150146,0.16031911969184875
1771628588293091000,9.475091064453125,8.305487632751465,1.3160524368286133,0.20578274130821228
1771628588311890200,9.49389013671875,8.827122688293457,1.332802176475525,0.46420758962631226
1771628588330689300,9.512689208984375,9.387042999267578,1.2969099283218384,0.37088751792907715
1771628588349488400,9.53148828125,9.822537422180176,1.3567304611206055,0.40677985548973083
1771628588368287500,9.55028759765625,10.05703353881836,1.3519448041915894,0.32303106784820557
1771628588387086600,9.569086669921875,10.16710376739502,1.3363914489746094,0.34217363595962524
1771628588405885700,9.5878857421875,10.296316146850586,1.3674981594085693,0.37806597352027893
1771628588424684800,9.606684814453125,10.01037311553955,1.3280165195465088,0.22372891008853912
1771628588452883500,9.634883544921875,10.1216402053833,1.1102696657180786,0.06699903309345245
1771628588471682600,9.6536826171875,10.823933601379395,0.8315058946609497,-0.16031911969184875
1771628588490481700,9.672481689453125,11.027322769165039,0.7489534616470337,0.007178467698395252
1771628588509280800,9.69128076171875,10.286744117736816,0.8446664214134216,0.45104706287384033
1771628588528080000,9.710079833984375,9.456435203552246,1.1102696657180786,0.9523434042930603
1771628588546879000,9.72887890625,9.036494255065918,1.6223337650299072,0.9439685344696045
1771628588565678000,9.747677978515625,9.445667266845703,1.8604196310043335,0.5335994362831116
1771628588584477200,9.766477294921875,11.081161499023438,1.5804593563079834,0.5838487148284912
1771628588603276300,9.7852763671875,11.846864700317383,1.2215359210968018,0.5718846321105957
1771628588622075400,9.804075439453126,11.210373878479004,1.1808580160140991,0.6448656916618347
1771628588640874500,9.82287451171875,9.79262638092041,1.384247899055481,0.7286145091056824
1771628588659673600,9.841673583984376,9.042476654052734,1.275374412536621,0.4666004180908203
1771628588678472700,9.86047265625,9.505488395690918,0.6699903607368469,0.6628118753433228
1771628588697271800,9.879271728515626,10.38365364074707,-0.18305093050003052,0.7058826684951782
1771628588716071000,9.89807080078125,10.557133674621582,-0.6771687865257263,0.5264210104942322
1771628588734870000,9.9168701171875,9.462417602539062,-0.623330295085907,-0.137587308883667
1771628588763068700,9.945068603515624,8.634500503540039,0.02153540402650833,-0.43549370765686035
1771628588781867800,9.96386767578125,8.786444664001465,0.3445664644241333,-0.02871387079358101
1771628588800667000,9.9826669921875,9.266205787658691,0.5060819983482361,0.29312077164649963
1771628588819466000,10.001466064453124,10.007980346679688,0.607776939868927,0.5120640397071838
1771628588838265300,10.020265380859374,10.995019912719727,0.5300102233886719,0.5778666734695435
1771628588866464000,10.048464111328125,11.423335075378418,0.48813581466674805,0.7441678643226624
1771628588885262800,10.067262939453125,10.350153923034668,0.6604190468788147,0.4773681163787842
1771628588904062200,10.086062255859375,9.203991889953613,0.8458628058433533,0.02153540402650833
1771628588922861000,10.104861083984375,8.81515884399414,0.9284151792526245,-0.1746760457754135
1771628588941660200,10.12366015625,8.754141807556152,0.8147560954093933,-0.3768695592880249
1771628588960459500,10.14245947265625,9.047262191772461,0.5910272002220154,-0.39122650027275085
1771628588979258400,10.16125830078125,9.28893756866455,0.5312066078186035,-0.3529413342475891
1771628588998057700,10.1800576171875,8.98385238647461,0.6364908218383789,-0.4654040038585663
1771628589016856600,10.198856689453125,8.803194046020508,0.7752745151519775,-0.4666004180908203
1771628589035656000,10.217656005859375,9.150154113769531,0.7585247755050659,-0.3732803463935852
1771628589054455000,10.236455078125,9.982855796813965,0.7178468108177185,-0.039481572806835175
1771628589073254000,10.25525390625,10.156335830688477,0.7250252366065979,0.1782652884721756
1771628589092053200,10.27405322265625,10.3621187210083,0.7668996453285217,0.1256231814622879
1771628589110852000,10.29285205078125,10.549955368041992,0.8327022790908813,-0.2763710021972656
1771628589129651500,10.3116513671875,10.666007041931152,0.8805587291717529,-0.33379876613616943
1771628589148450600,10.330450439453125,10.293923377990723,0.8578268885612488,-0.059820566326379776
1771628589167249400,10.34924951171875,9.712467193603516,0.8327022790908813,0.061016976833343506
1771628589186048800,10.368048828125,9.643074989318848,0.8793623447418213,0.23808585107326508
1771628589204847600,10.38684765625,9.596415519714355,1.2430713176727295,0.3900300860404968
1771628589223647000,10.40564697265625,9.279366493225098,1.667797327041626,0.30987054109573364
1771628589242446000,10.424446044921876,9.79262638092041,1.6606189012527466,0.4426721930503845
1771628589261245200,10.4432451171875,10.490134239196777,1.2993026971817017,0.3756731450557709
1771628589280044300,10.462044189453126,11.276176452636719,0.8243274092674255,0.20338992774486542
1771628589298843100,10.480843017578126,11.242676734924316,0.48454657196998596,0.32183465361595154
1771628589317642500,10.499642578125,10.039087295532227,0.3409772217273712,0.7489534616470337
1771628589336441600,10.518441650390624,9.300901412963867,0.32542386651039124,0.8578268885612488
1771628589355240700,10.53724072265625,9.499505996704102,0.4450650215148926,1.3806586265563965
1771628589374039800,10.556039794921874,9.012566566467285,0.5934200286865234,1.9106688499450684
1771628589392838700,10.574838623046874,8.632107734680176,1.0061819553375244,2.135594129562378
1771628589411638000,10.593637939453124,9.032905578613281,1.231107234954834,1.5720844268798828
1771628589430437000,10.61243701171875,9.841679573059082,1.100698471069336,0.8602197170257568
1771628589449236200,10.631236328125,10.564311981201172,0.8973084688186646,0.15194423496723175
1771628589468035300,10.650035400390625,11.307283401489258,0.7513462901115417,-0.12442677468061447
1771628589486834400,10.66883447265625,12.083754539489746,0.589830756187439,-0.11844471842050552
1771628589505633500,10.687633544921875,11.82293701171875,0.8195417523384094,-0.13160525262355804
1771628589524432600,10.7064326171875,9.79262638092041,1.3052847385406494,-0.19980068504810333
1771628589543231700,10.725231689453125,8.6033935546875,1.6271194219589233,-0.2584248483181
1771628589562030800,10.74403076171875,7.966903209686279,1.6271194219589233,-0.04905286431312561
1771628589580830000,10.762829833984375,8.118846893310547,1.4213366508483887,0.3074777126312256
1771628589599629000,10.781629150390625,8.507680892944336,1.2897313833236694,0.6197410821914673
1771628589618428200,10.80042822265625,8.723034858703613,1.2741780281066895,0.729810893535614
1771628589637227300,10.819227294921875,9.615557670593262,1.077966570854187,0.9032905697822571
1771628589656026400,10.8380263671875,10.738987922668457,0.9116654396057129,1.0336993932724
1771628589674825500,10.856825439453125,9.791430473327637,1.01814603805542,0.9451649188995361
1771628589693624600,10.87562451171875,9.519845008850098,1.6845471858978271,0.44386860728263855
1771628589712423700,10.894423583984375,9.316454887390137,1.8005990982055664,0.49651068449020386
1771628589731222800,10.913222900390625,10.576275825500488,1.5182459354400635,0.5156532526016235
1771628589750022000,10.93202197265625,11.199605941772461,1.113858938217163,0.4450650215148926
1771628589768821000,10.950821044921875,10.882556915283203,0.9104689955711365,0.486939400434494
1771628589787620000,10.9696201171875,10.17308521270752,1.0707881450653076,0.6520441770553589
1771628589806419200,10.988419189453126,9.116654396057129,1.2478569746017456,0.7010970115661621
1771628589825218300,11.00721826171875,8.851051330566406,1.4368900060653687,0.4103690981864929
1771628589844017400,11.026017333984376,8.880961418151855,1.444068431854248,-0.059820566326379776
1771628589862816500,11.04481640625,8.935996055603027,1.3268201351165771,-0.5024927258491516
1771628589881615600,11.06361572265625,10.393224716186523,1.1461620330810547,-0.39840495586395264
1771628589900414700,11.082414794921876,11.452049255371094,1.2550355195999146,0.14835500717163086
1771628589919213800,11.1012138671875,11.368300437927246,1.439282774925232,0.6532405614852905
1771628589938013000,11.120012939453124,11.419746398925781,1.038485050201416,1.293320655822754
1771628589956812000,11.13881201171875,12.031112670898438,0.349352091550827,1.5026925802230835
1771628589975611100,11.157611083984374,12.021540641784668,-0.2584248483181,1.058824062347412
1771628589994410200,11.17641015625,11.35513973236084,-0.4223332107067108,0.2871387302875519
1771628590013209300,11.195209228515624,10.076175689697266,-0.20578274130821228,-0.31345975399017334
1771628590032008400,11.214008544921874,9.159725189208984,0.18305093050003052,-0.3732803463935852
1771628590050807600,11.2328076171875,8.725427627563477,0.33738797903060913,0.06819544732570648
1771628590069606700,11.251606689453125,8.780462265014648,0.41515472531318665,0.3696911036968231
1771628590088405800,11.27040576171875,9.22433090209961,0.534795880317688,0.519242525100708
1771628590107204900,11.289204833984375,8.883354187011719,0.4773681163787842,0.33858439326286316
1771628590126004000,11.30800390625,8.96829891204834,0.33499518036842346,0.019142581149935722
1771628590144803000,11.326802978515625,9.18724250793457,0.31345975399017334,-0.08614161610603333
1771628590163602200,11.345602294921875,9.068798065185547,0.4713860750198364,-0.10887342691421509
1771628590182401300,11.3644013671875,8.6967134475708,0.7585247755050659,-0.17347964644432068
1771628590201200400,11.383200439453125,8.489734649658203,0.9391828775405884,-0.24885354936122894
1771628590219999500,11.40199951171875,9.068798065185547,0.9332008361816406,-0.5383850932121277
1771628590238798600,11.420798583984375,10.012765884399414,0.836291491985321,-0.4127618968486786
1771628590257597700,11.43959765625,10.811968803405762,0.6747759580612183,-0.19740787148475647
1771628590276396800,11.458396728515625,10.715060234069824,0.6951149702072144,-0.0323031060397625
1771628590295196000,11.47719580078125,9.879964828491211,0.9272187948226929,-0.09212367236614227
1771628590313995000,11.4959951171875,9.42173957824707,1.1114661693572998,-0.22013968229293823
1771628590342193700,11.524193603515625,9.682557106018066,1.042074203491211,-0.2021935135126114
1771628590360992800,11.54299267578125,9.878767967224121,0.851844847202301,-0.18065811693668365
1771628590379792000,11.5617919921875,10.100104331970215,0.8051848411560059,-0.02273181453347206
1771628590398591000,11.580591064453126,10.372885704040527,0.8195417523384094,0.05742774158716202
1771628590417390000,11.59939013671875,10.217352867126465,0.8087740540504456,-0.08614161610603333
1771628590436189200,11.618189208984376,9.82373332977295,0.7369893789291382,-0.20099709928035736
1771628590454988300,11.63698828125,9.541379928588867,0.6783652305603027,-0.14476576447486877
1771628590473787400,11.655787353515626,9.860821723937988,0.867398202419281,0.08614161610603333
1771628590492586500,11.67458642578125,10.510473251342773,1.1976077556610107,0.41874396800994873
1771628590511385600,11.693385498046876,10.534401893615723,1.5601203441619873,0.6041877269744873
1771628590530184700,11.712184814453124,9.957731246948242,1.726421594619751,0.7573283910751343
1771628590548983800,11.73098388671875,10.552348136901855,1.4452649354934692,1.1150553226470947
1771628590567783000,11.749782958984374,11.241480827331543,1.0396814346313477,0.6125625967979431
1771628590586582000,11.76858203125,9.656235694885254,0.8015955686569214,0.09571290761232376
1771628590605381000,11.787381103515624,8.583054542541504,0.4666004180908203,0.22372891008853912
1771628590624180200,11.80618017578125,9.460023880004883,-0.1423729509115219,0.9726824164390564
1771628590642979300,11.824979248046875,10.746166229248047,-0.6197410821914673,1.9465612173080444
1771628590661778400,11.8437783203125,10.6624174118042,-0.4570291340351105,2.093719720840454
1771628590680577500,11.86257763671875,9.365508079528809,0.4007977843284607,1.9046868085861206
1771628590708776200,11.890776123046875,7.923832416534424,1.6630117893218994,1.0372886657714844
1771628590727575300,11.9095751953125,8.827122688293457,1.604387640953064,0.6544370055198669
1771628590746374400,11.92837451171875,10.715060234069824,0.9966106414794922,0.137587308883667
1771628590765173500,11.947173583984375,12.234501838684082,0.47258245944976807,-0.07896314561367035
1771628590783972600,11.96597265625,12.713067054748535,0.3278166949748993,-0.1495514214038849
1771628590802771700,11.984771728515625,11.13619613647461,0.6508477330207825,0.013160524889826775
1771628590821570800,12.00357080078125,9.42054271697998,1.0492527484893799,0.16749759018421173
1771628590840370000,12.022369873046875,8.313861846923828,1.2729816436767578,0.1782652884721756
1771628590859169000,12.0411689453125,7.988438606262207,1.25144624710083,0.24885354936122894
1771628590877968100,12.059968017578125,8.45743179321289,1.0887342691421509,0.35892340540885925
1771628590896767200,12.078767333984375,8.883354187011719,0.9846464991569519,0.5108676552772522
1771628590915566300,12.09756640625,8.782855987548828,1.1222338676452637,0.5718846321105957
1771628590934365400,12.116365478515625,8.86062240600586,1.2693923711776733,0.49172505736351013
1771628590962564000,12.144564208984375,10.261619567871094,1.140179991722107,0.6640082597732544
1771628590981363200,12.16336328125,10.954341888427734,1.077966570854187,0.8781659007072449
1771628591000162300,12.182162353515626,10.899307250976562,0.9858429431915283,0.9834501147270203
1771628591018961400,12.20096142578125,10.26042366027832,0.98703932762146,0.6580262184143066
1771628591037760500,12.219760498046876,9.934999465942383,1.031306505203247,0.2679961323738098
1771628591056559600,12.2385595703125,9.879964828491211,1.1856436729431152,0.45224347710609436
1771628591075358700,12.257358642578126,9.521040916442871,1.2275179624557495,0.6149554252624512
1771628591094157800,12.27615771484375,9.402596473693848,1.2346965074539185,0.8039883971214294
1771628591112957000,12.29495703125,9.20997428894043,1.4213366508483887,0.5228317379951477
1771628591131756000,12.313756103515624,9.207581520080566,1.5194423198699951,-0.1423729509115219
1771628591150555100,12.33255517578125,10.50209903717041,1.0827522277832031,-0.45942193269729614
1771628591169354200,12.351354248046874,12.160325050354004,0.5312066078186035,-0.3158525824546814
1771628591188153300,12.3701533203125,12.884153366088867,0.519242525100708,0.20458634197711945
1771628591206952400,12.388952392578124,11.609975814819336,0.9499505758285522,0.8662018179893494
1771628591225751600,12.40775146484375,10.498509407043457,1.171286702156067,1.3280165195465088
1771628591244550700,12.426550537109375,10.468599319458008,0.6903293132781982,1.2849457263946533
1771628591263349800,12.445349853515625,10.973484992980957,0.02273181453347206,0.6819544434547424
1771628591282148900,12.46414892578125,11.140982627868652,-0.34576287865638733,-0.038285162299871445
1771628591300948000,12.482947998046875,9.992427825927734,-0.3888336718082428,-0.019142581149935722
1771628591329146600,12.511146728515625,7.947760581970215,-0.0933200865983963,-0.3194418251514435
1771628591347945700,12.52994580078125,7.77188777923584,0.07417750358581543,-0.5156532526016235
1771628591366744800,12.548744873046875,8.925228118896484,0.24167509377002716,-0.4905286431312561
1771628591385544000,12.5675439453125,9.485149383544922,0.3314059376716614,-0.24167509377002716
1771628591404343000,12.586343017578125,9.69212818145752,0.3086741268634796,0.1746760457754135
1771628591423142100,12.60514208984375,10.171889305114746,0.3720839321613312,0.2105683982372284
1771628591441941200,12.623941162109375,10.225728034973145,0.5754738450050354,-0.13040883839130402
1771628591460740400,12.642740234375,9.7938232421875,0.8482556343078613,-0.2584248483181
1771628591479539500,12.66153955078125,9.363115310668945,0.9966106414794922,0.005982056725770235
1771628591498338600,12.680338623046875,9.267401695251465,0.9487541913986206,-0.02153540402650833
1771628591517137700,12.6991376953125,9.53659439086914,0.7202396392822266,-0.06819544732570648
1771628591535936800,12.717936767578125,9.445667266845703,0.5527420043945312,-0.37088751792907715
1771628591554735900,12.73673583984375,9.196813583374023,0.5635097622871399,-0.6125625967979431
1771628591573535000,12.755534912109376,8.97787094116211,0.7286145091056824,-0.6664010882377625
1771628591592334000,12.774333984375,8.684749603271484,0.9296116232872009,-0.8003991842269897
1771628591611133200,12.79313330078125,8.828319549560547,1.1126625537872314,-0.7381857633590698
1771628591629932300,12.811932373046876,9.578469276428223,1.0301101207733154,-0.5300102233886719
1771628591648731400,12.8307314453125,10.536794662475586,0.8039883971214294,-0.4259224236011505
1771628591667530500,12.849530517578126,11.001002311706543,0.7752745151519775,-0.4498506486415863
1771628591686329600,12.86832958984375,10.827522277832031,0.8063812255859375,-0.2907279431819916
1771628591705128700,12.887128662109374,10.345368385314941,0.6496513485908508,-0.11246266216039658
1771628591723927800,12.905927734375,9.891928672790527,0.46779683232307434,0.05383851006627083
1771628591742727000,12.924726806640624,10.197013854980469,0.2919243574142456,0.3206382393836975
1771628591761526000,12.943526123046874,11.138589859008789,0.6293123364448547,0.5527420043945312
1771628591780325000,12.9623251953125,10.969895362854004,1.3435698747634888,0.672383189201355
1771628591799124200,12.981124267578124,10.63370418548584,1.6055840253829956,0.7070791125297546
1771628591827323000,13.009322998046875,11.3180513381958,1.129412293434143,0.21296121180057526
1771628591846122000,13.0281220703125,10.466206550598145,0.9487541913986206,-0.4905286431312561
1771628591864921000,13.046921142578125,9.449256896972656,0.6329016089439392,-0.6364908218383789
1771628591883720200,13.06572021484375,8.940781593322754,0.39960137009620667,0.014356935396790504
1771628591902519300,13.084519287109375,8.85224723815918,0.14356936514377594,0.4331009089946747
1771628591921318400,13.103318359375,9.286544799804688,0.04187439754605293,0.8602197170257568
1771628591940117500,13.122117431640625,9.58205795288086,0.2021935135126114,1.0169496536254883
1771628591958916600,13.14091650390625,9.242277145385742,0.623330295085907,0.5072783827781677
1771628591977715700,13.1597158203125,9.127422332763672,1.062413215637207,0.26440688967704773
1771628591996514800,13.178514892578125,9.77109146118164,1.3603196144104004,0.24167509377002716
1771628592015314000,13.19731396484375,10.289137840270996,1.439282774925232,0.33020952343940735
1771628592034113000,13.216113037109375,10.473384857177734,1.2346965074539185,0.275174617767334
1771628592052912000,13.234912109375,11.085947036743164,0.8374879360198975,0.029910283163189888
1771628592071711200,13.253711181640625,11.437692642211914,0.4893322288990021,-0.3720839321613312
1771628592090510300,13.27251025390625,10.470992088317871,0.5120640397071838,-0.397208571434021
1771628592109309400,13.291309326171875,8.980263710021973,0.7513462901115417,-0.28953152894973755
1771628592128108500,13.310108642578125,8.164310455322266,0.9930213689804077,0.0526420995593071
1771628592146907600,13.32890771484375,7.8795647621154785,1.098305583000183,0.22612173855304718
1771628592165706800,13.347706787109376,8.322237014770508,1.1617153882980347,0.24646073579788208
1771628592184505900,13.366505859375,8.83669376373291,1.2203395366668701,0.1818545162677765
1771628592203305000,13.385304931640626,9.087940216064453,1.3615161180496216,0.22492532432079315
1771628592222104000,13.40410400390625,9.401400566101074,1.4715858697891235,0.48813581466674805
1771628592240903200,13.422903076171876,9.962516784667969,1.5050854682922363,0.8781659007072449
1771628592259702300,13.441702392578126,10.759326934814453,1.456032633781433,1.1066805124282837
1771628592278501400,13.46050146484375,10.898110389709473,1.4081761837005615,1.057627558708191
1771628592297300500,13.479300537109374,10.637292861938477,1.3926228284835815,0.8745766878128052
1771628592316099600,13.498099609375,10.311869621276855,1.4344971179962158,0.5754738450050354
1771628592334898700,13.516898681640624,10.04267692565918,1.2394821643829346,0.20099709928035736
1771628592353697800,13.53569775390625,9.907482147216797,0.9523434042930603,0.10049854964017868
1771628592372497000,13.554496826171874,9.890732765197754,0.9547362327575684,0.07896314561367035
1771628592391296000,13.5732958984375,9.580862045288086,1.1425727605819702,0.12442677468061447
1771628592410095000,13.59209521484375,9.391828536987305,1.4476577043533325,0.13040883839130402
1771628592428894200,13.610894287109375,9.425328254699707,1.4225330352783203,0.02512463741004467
1771628592447693300,13.629693359375,10.265209197998047,1.1485549211502075,-0.45104706287384033
1771628592466492400,13.648492431640625,11.468798637390137,0.885344386100769,-0.5288137793540955
1771628592485291500,13.66729150390625,12.1806640625,0.8757730722427368,-0.059820566326379776
1771628592504090600,13.686090576171875,11.96172046661377,1.0325030088424683,0.26201409101486206
1771628592522889700,13.7048896484375,10.877771377563477,1.0432707071304321,0.45942193269729614
1771628592541688800,13.723688720703125,10.792826652526855,0.8913264274597168,0.589830756187439
1771628592560488000,13.742488037109375,11.34676456451416,0.5431707501411438,0.31345975399017334
1771628592579287000,13.761287109375,11.255837440490723,0.2476571500301361,0.02632104977965355
1771628592598086100,13.780086181640625,9.957731246948242,0.16271193325519562,0.05742774158716202
1771628592616885200,13.79888525390625,8.590232849121094,0.062213387340307236,-0.16749759018421173
1771628592635684400,13.817684326171875,8.11406135559082,-0.08015955984592438,-0.28594231605529785
1771628592654483500,13.8364833984375,8.645268440246582,-0.31106695532798767,0.029910283163189888
1771628592682682000,13.86468212890625,8.908478736877441,-0.07537391036748886,0.4618147611618042
1771628592701481200,13.883481201171875,8.132007598876953,0.42831525206565857,0.5970092415809631
1771628592720280300,13.9022802734375,8.289934158325195,0.6580262184143066,0.760917603969574
1771628592748479000,13.93047900390625,10.214960098266602,0.35892340540885925,0.6317051649093628
1771628592767278000,13.949278076171876,11.205588340759277,0.20338992774486542,0.20458634197711945
1771628592786077200,13.9680771484375,10.852646827697754,0.44386860728263855,0.004785645287483931
1771628592804876300,13.986876220703126,9.558130264282227,0.8039883971214294,0.01196411345154047
1771628592823675400,14.00567529296875,8.963513374328613,0.9966106414794922,0.038285162299871445
1771628592851874000,14.0338740234375,8.922835350036621,0.9224331378936768,-0.5910272002220154
1771628592870673200,14.052673095703126,9.54377269744873,0.7345965504646301,-0.7680960893630981
1771628592889472300,14.07147216796875,9.516255378723145,0.6747759580612183,-0.5706881880760193
1771628592908271400,14.090271240234374,9.078369140625,0.8255237936973572,-0.15553347766399384
1771628592927070500,14.109070556640624,9.230313301086426,1.0265209674835205,0.06699903309345245
1771628592945869600,14.12786962890625,9.696913719177246,0.9535398483276367,0.12681959569454193
1771628592964668700,14.146668701171874,9.869196891784668,0.8793623447418213,0.18065811693668365
1771628592983467800,14.1654677734375,10.000802040100098,0.8865407705307007,0.1052841991186142
1771628593002267000,14.184266845703124,10.153943061828613,0.9212366938591003,0.13998012244701385
1771628593021066000,14.20306591796875,10.072587013244629,0.900897741317749,-0.03469592705368996
1771628593039865000,14.221864990234375,9.952945709228516,0.9092726111412048,-0.44027936458587646
1771628593058664200,14.240664306640625,9.950552940368652,0.9535398483276367,-0.45224347710609436
1771628593077463300,14.25946337890625,10.342975616455078,1.2035897970199585,0.0933200865983963
1771628593096262400,14.278262451171875,10.606185913085938,1.550549030303955,0.4701896607875824
1771628593115061500,14.2970615234375,10.883753776550293,1.4835500717163086,0.4342973232269287
1771628593133860600,14.315860595703125,11.642278671264648,1.0827522277832031,0.5324030518531799
1771628593152659700,14.33465966796875,11.917452812194824,0.9188438653945923,0.24406790733337402
1771628593171458800,14.353458740234375,9.870393753051758,1.058824062347412,-0.1902294009923935
1771628593190258000,14.3722578125,8.889336585998535,0.9439685344696045,-0.3888336718082428
1771628593209057000,14.39105712890625,9.4061861038208,0.40677985548973083,-0.5120640397071838
1771628593227856100,14.409856201171875,10.365707397460938,-0.003589233849197626,-0.32183465361595154
1771628593246655200,14.4286552734375,10.402796745300293,0.05742774158716202,0.1256231814622879
1771628593265454300,14.447454345703125,10.029516220092773,0.4630111753940582,0.7094719409942627
1771628593284253400,14.46625341796875,9.352347373962402,0.8757730722427368,1.3028919696807861
1771628593303052500,14.485052490234375,8.548358917236328,1.1808580160140991,1.2789636850357056
1771628593321851600,14.5038515625,8.702695846557617,1.2203395366668701,1.168893814086914
1771628593340650800,14.522650634765625,9.56889820098877,1.2143574953079224,1.2179467678070068
1771628593359449900,14.541449951171876,9.602396965026855,1.1784651279449463,0.9655039310455322
1771628593378249000,14.5602490234375,9.774680137634277,0.9236295223236084,0.8219345808029175
1771628593397048000,14.579048095703126,10.604990005493164,0.43190449476242065,0.8638089895248413
1771628593415847200,14.59784716796875,11.732009887695312,0.12083754688501358,0.6329016089439392
1771628593434646300,14.616646240234376,10.731809616088867,0.3314059376716614,0.4223332107067108
1771628593453445400,14.6354453125,8.9312105178833,0.8159525394439697,0.33379876613616943
1771628593472244500,14.654244384765626,8.273183822631836,1.2035897970199585,0.30149564146995544
1771628593491043600,14.673043701171874,8.1224365234375,1.2729816436767578,0.10049854964017868
1771628593509842700,14.6918427734375,8.974281311035156,1.1222338676452637,-0.1579262912273407
1771628593528641800,14.710641845703124,9.968499183654785,1.0707881450653076,-0.18903298676013947
1771628593547441000,14.72944091796875,10.280762672424316,1.207179069519043,-0.0526420995593071
1771628593566240000,14.748239990234374,10.046265602111816,1.2646067142486572,0.06580262631177902
1771628593585039000,14.7670390625,9.864411354064941,1.211964726448059,0.12921242415905
1771628593603838200,14.785838134765624,9.561718940734863,1.093519926071167,0.10887342691421509
1771628593622637300,14.80463720703125,9.10229778289795,1.0600204467773438,0.10648060590028763
1771628593641436400,14.8234365234375,9.091529846191406,1.0432707071304321,0.13280165195465088
1771628593660235500,14.842235595703125,9.339186668395996,0.9296116232872009,0.04666004329919815
1771628593679034600,14.86103466796875,10.289137840270996,0.7058826684951782,0.19142581522464752
1771628593697833700,14.879833740234375,11.071590423583984,0.7226324677467346,0.39122650027275085
1771628593726032400,14.908032470703125,10.24487018585205,1.2873386144638062,0.5228317379951477
1771628593744831500,14.92683154296875,10.101301193237305,1.4727823734283447,0.1782652884721756
1771628593763630600,14.945630615234375,10.284351348876953,1.5086746215820312,-0.4007977843284607
1771628593782429700,14.9644296875,10.496116638183594,1.2406785488128662,-0.8327022790908813
1771628593801228800,14.983228759765625,11.484352111816406,0.9367900490760803,-0.8075776696205139
1771628593820028000,15.00202783203125,11.803793907165527,0.9906286001205444,-0.3481557071208954
1771628593838827000,15.020826904296875,10.278369903564453,1.2418749332427979,0.2787638306617737
1771628593857626000,15.039626220703125,8.792427062988281,1.3663017749786377,1.1377872228622437
1771628593876425200,15.05842529296875,9.073583602905273,0.9403793215751648,1.1665010452270508
1771628593895224300,15.077224365234375,10.092926025390625,-0.05383851006627083,0.8482556343078613
1771628593914023400,15.0960234375,10.957931518554688,-0.8817551732063293,0.6424728631973267
1771628593932822500,15.114822509765625,10.839486122131348,-1.0325030088424683,0.5539384484291077
1771628593951621600,15.13362158203125,9.708877563476562,-0.623330295085907,0.23330020904541016
1771628593970420700,15.152420654296876,9.273384094238281,0.05144568532705307,-0.013160524889826775
1771628593989219800,15.1712197265625,9.140582084655762,0.4498506486415863,0.07178468257188797
1771628594008019000,15.19001904296875,9.610772132873535,0.4785645306110382,-0.15194423496723175
1771628594026818000,15.208818115234376,10.114460945129395,0.397208571434021,-0.5706881880760193
1771628594045617200,15.2276171875,9.903892517089844,0.23210379481315613,-0.5670989751815796
1771628594064416300,15.246416259765626,10.153943061828613,0.13040883839130402,-0.08973085135221481
1771628594083215400,15.26521533203125,10.370492935180664,0.10887342691421509,-0.07657032459974289
1771628594102014500,15.284014404296874,10.219745635986328,0.2632105052471161,0.005982056725770235
1771628594120813600,15.3028134765625,9.66221809387207,0.5670989751815796,0.26081767678260803
1771628594139612700,15.32161279296875,9.053244590759277,0.7980063557624817,0.3445664644241333
1771628594158411800,15.340411865234374,9.18843936920166,0.9080761671066284,0.3326023519039154
1771628594177211000,15.3592109375,9.256634712219238,0.7872386574745178,0.13040883839130402
1771628594205409500,15.387409423828124,9.604789733886719,0.4582255482673645,0.09810572862625122
1771628594224208600,15.406208740234375,9.7938232421875,0.40797626972198486,-0.01196411345154047
1771628594243007700,15.4250078125,9.540184020996094,0.5276173949241638,-0.34217363595962524
1771628594261806800,15.443806884765625,9.169296264648438,0.8207381963729858,-0.42352959513664246
1771628594280606000,15.46260595703125,8.879764556884766,1.038485050201416,-0.45224347710609436
1771628594299404800,15.48140478515625,9.290133476257324,0.9726824164390564,-0.1950150430202484
1771628594318204200,15.5002041015625,10.15872859954834,0.8662018179893494,-0.09930214285850525
1771628594337003300,15.519003173828125,10.378868103027344,0.8219345808029175,-0.3074777126312256
1771628594365202000,15.547201904296875,9.724431037902832,0.8578268885612488,-0.2548356056213379
1771628594384000800,15.566000732421875,9.627521514892578,0.7226324677467346,-0.28115665912628174
1771628594402800000,15.584800048828125,9.875179290771484,0.5539384484291077,-0.11485548317432404
1771628594421599000,15.603598876953125,10.749755859375,0.6675975322723389,0.15194423496723175
1771628594440398300,15.6223984375,11.075180053710938,1.1042876243591309,0.4773681163787842
1771628594459197400,15.641197509765625,10.473384857177734,1.3112667798995972,0.6759724020957947
1771628594477996300,15.659996337890625,11.001002311706543,1.1318050622940063,0.7980063557624817
1771628594496795600,15.678795654296875,11.949756622314453,0.8901300430297852,0.30508488416671753
1771628594515594500,15.697594482421875,11.522637367248535,0.5407779216766357,-0.1459621787071228
1771628594534393600,15.7163935546875,9.957731246948242,0.3326023519039154,-0.1782652884721756
1771628594553193000,15.73519287109375,9.41336441040039,0.14835500717163086,0.17587246000766754
1771628594571991800,15.75399169921875,9.839286804199219,0.008374879136681557,0.2476571500301361
1771628594590791200,15.772791259765626,10.348958015441895,0.10767702013254166,0.3613162338733673
1771628594609590000,15.791590087890626,9.853643417358398,0.5659025311470032,0.41874396800994873
1771628594628389000,15.81038916015625,8.335397720336914,1.2263215780258179,0.7166503667831421
1771628594647188500,15.8291884765625,7.852047443389893,1.6235301494598389,0.9284151792526245
1771628594665987300,15.8479873046875,9.336793899536133,1.4811571836471558,1.1569297313690186
1771628594684786400,15.866786376953126,10.87418270111084,1.0600204467773438,1.0205388069152832
1771628594703585500,15.88558544921875,11.196017265319824,0.8255237936973572,0.7226324677467346
1771628594722384600,15.904384521484374,10.001998901367188,0.7393822073936462,0.3936193287372589
1771628594741184000,15.92318408203125,9.579665184020996,0.5958128571510315,0.06340979784727097
1771628594759982800,15.94198291015625,9.675378799438477,0.3278166949748993,0.3900300860404968
1771628594778782000,15.960781982421874,9.408578872680664,0.26081767678260803,0.5587241053581238
1771628594797581000,15.9795810546875,8.62732219696045,0.519242525100708,0.6041877269744873
1771628594816380200,15.998380126953125,8.160721778869629,0.9810572862625122,0.6460621356964111
1771628594835179300,16.01717919921875,8.047062873840332,1.322034478187561,0.519242525100708
1771628594863378000,16.0453779296875,9.29731273651123,1.3112667798995972,0.5934200286865234
1771628594882177000,16.064177001953126,10.217352867126465,1.2526426315307617,0.5264210104942322
1771628594900976000,16.08297607421875,10.679167747497559,1.1581261157989502,0.3756731450557709
1771628594919775200,16.101775146484375,10.811968803405762,1.1497513055801392,0.45942193269729614
1771628594947974000,16.129973876953127,9.92423152923584,1.1832507848739624,0.3002992272377014
1771628594966773000,16.14877294921875,9.491130828857422,1.3256237506866455,0.13280165195465088
1771628594985572000,16.167572021484375,9.074779510498047,1.4656038284301758,-0.04307080805301666
1771628595004371200,16.18637109375,8.847461700439453,1.4416756629943848,0.09690931439399719
1771628595023170300,16.20517041015625,9.322437286376953,1.2598211765289307,0.13040883839130402
1771628595041969400,16.223969482421875,10.389636039733887,1.0815558433532715,0.24167509377002716
1771628595060768500,16.2427685546875,10.965109825134277,1.1270195245742798,0.3445664644241333
1771628595079567600,16.261567626953124,10.564311981201172,1.2586246728897095,0.13639089465141296
1771628595098366700,16.28036669921875,9.930213928222656,1.4021940231323242,-0.24167509377002716
1771628595117165800,16.299165771484375,9.896714210510254,1.4608181715011597,-0.4941178858280182
1771628595135965000,16.31796484375,10.409975051879883,1.2167502641677856,-0.7932206988334656
1771628595154764000,16.336763916015624,11.267802238464355,0.885344386100769,-0.7776673436164856
1771628595182962700,16.364962646484376,10.796415328979492,0.8793623447418213,-0.4103690981864929
1771628595201761800,16.38376171875,10.24487018585205,0.8171489238739014,0.3888336718082428
1771628595220561000,16.402560791015624,10.695917129516602,0.5611169338226318,0.989432156085968
1771628595239360000,16.421360107421876,11.57408332824707,0.06939185410737991,0.9906286001205444
1771628595258159000,16.4401591796875,11.885149955749512,-0.3158525824546814,0.5479564070701599
1771628595276958200,16.458958251953124,10.466206550598145,-0.33738797903060913,0.11964113265275955
1771628595295757300,16.47775732421875,8.805587768554688,-0.09212367236614227,-0.09930214285850525
1771628595314556400,16.496556396484376,8.097311973571777,0.04187439754605293,-0.035892341285943985
1771628595333355500,16.51535546875,8.187042236328125,0.06580262631177902,0.15194423496723175
1771628595352154600,16.534154541015624,8.685946464538574,0.1866401731967926,0.2632105052471161
1771628595370953700,16.55295361328125,8.70508861541748,0.29790642857551575,0.34576287865638733
1771628595389752800,16.5717529296875,9.308079719543457,0.30149564146995544,0.6269195079803467
1771628595408552000,16.590552001953125,10.235299110412598,0.22612173855304718,0.7178468108177185
1771628595427351000,16.60935107421875,10.540383338928223,0.3290131092071533,0.6029912829399109
1771628595446150100,16.628150146484376,9.852447509765625,0.6831508874893188,0.4821537733078003
1771628595464949200,16.64694921875,8.971888542175293,1.0827522277832031,0.5060819983482361
1771628595483748400,16.665748291015625,8.85942554473877,1.1042876243591309,0.4139583110809326
1771628595502547200,16.684547119140625,9.475577354431152,0.7932206988334656,0.21176479756832123
1771628595521346600,16.7033466796875,10.199406623840332,0.41874396800994873,0.16031911969184875
1771628595540145700,16.722145751953125,10.225728034973145,0.2907279431819916,0.031106693670153618
1771628595558944800,16.74094482421875,9.991230964660645,0.38763725757598877,-0.4941178858280182
1771628595577744000,16.759743896484373,9.988838195800781,0.5814558863639832,-0.6149554252624512
1771628595596542700,16.778542724609373,9.834501266479492,0.714257538318634,-0.5312066078186035
1771628595615342000,16.797342041015625,9.486345291137695,0.9260223507881165,-0.5694918036460876
1771628595634141200,16.81614111328125,9.072386741638184,1.207179069519043,-0.4654040038585663
1771628595652940000,16.83493994140625,9.232706069946289,1.1940184831619263,-0.5000999569892883
1771628595671739400,16.853739501953125,9.982855796813965,0.9080761671066284,-0.32662028074264526
1771628595690538200,16.872538330078125,10.803594589233398,0.6484549641609192,-0.11605189740657806
1771628595709337300,16.89133740234375,11.09192943572998,0.7202396392822266,-0.09212367236614227
1771628595728136700,16.91013671875,10.482955932617188,1.2059825658798218,-0.4414757788181305
1771628595746935600,16.928935546875,9.571290969848633,1.7682958841323853,-0.8159525394439697
1771628595765734700,16.947734619140626,9.68375301361084,1.8975083827972412,-0.6305087804794312
1771628595784533800,16.96653369140625,10.789237022399902,1.5804593563079834,0.10887342691421509
1771628595803332900,16.985332763671874,11.912667274475098,1.2299108505249023,0.5850451588630676
1771628595822132000,17.004132080078126,11.413763999938965,0.7238288521766663,0.4654040038585663
1771628595840931000,17.02293115234375,10.394421577453613,0.22013968229293823,0.50129634141922
1771628595859730200,17.041730224609374,9.829715728759766,-0.05742774158716202,0.5563312768936157
1771628595878529300,17.060529296875,9.347561836242676,-0.13160525262355804,0.5324030518531799
1771628595897328400,17.079328369140626,9.284152030944824,0.11724831163883209,0.5587241053581238
1771628595916127500,17.09812744140625,9.044869422912598,0.5635097622871399,0.8614161610603333
1771628595934926600,17.116926513671874,8.668000221252441,1.1509476900100708,1.207179069519043
1771628595953725700,17.1357255859375,8.806783676147461,1.4871392250061035,1.435693621635437
1771628595972524800,17.15452490234375,9.66819953918457,1.4715858697891235,1.2921242713928223
1771628595991324000,17.173323974609374,10.065408706665039,1.0887342691421509,0.6209374666213989
1771628596019522600,17.2015224609375,11.36949634552002,0.5359922647476196,-0.04187439754605293
1771628596038321700,17.22032177734375,11.073983192443848,0.4498506486415863,0.013160524889826775
1771628596057120800,17.239120849609375,9.649057388305664,0.6747759580612183,0.12921242415905
1771628596075920000,17.257919921875,8.470592498779297,0.9116654396057129,0.2991028428077698
1771628596094719000,17.276718994140627,7.726424217224121,1.1258230209350586,0.39122650027275085
1771628596122917600,17.304917724609375,8.171489715576172,1.2406785488128662,0.5659025311470032
1771628596141716700,17.323716796875,8.740981101989746,1.2047861814498901,0.7106683254241943
1771628596160515800,17.342515869140627,9.404989242553711,1.1174482107162476,0.867398202419281
1771628596179315000,17.36131494140625,9.982855796813965,1.0660024881362915,0.8003991842269897
1771628596198114000,17.380114013671875,10.255638122558594,1.1569297313690186,0.5324030518531799
1771628596216913200,17.3989130859375,10.231709480285645,1.337587833404541,0.2225325107574463
1771628596235712300,17.417712158203123,9.830911636352539,1.5158531665802002,0.037088751792907715
1771628596254511400,17.436511474609375,9.650253295898438,1.5337992906570435,-0.11605189740657806
1771628596273310500,17.455310546875,9.729216575622559,1.4009976387023926,-0.34217363595962524
1771628596292109600,17.474109619140624,10.007980346679688,1.3232308626174927,-0.4055834412574768
1771628596310908700,17.49290869140625,10.280762672424316,1.2502498626708984,-0.25004997849464417
1771628596329707800,17.511707763671875,10.39202880859375,1.2717852592468262,0.2763710021972656
1771628596348507000,17.5305068359375,10.096514701843262,1.32921302318573,0.8327022790908813
1771628596376705500,17.55870556640625,10.071390151977539,1.3902299404144287,1.215553879737854
1771628596395504400,17.57750439453125,10.985448837280273,1.3256237506866455,0.7657032608985901
1771628596414303700,17.5963037109375,11.460424423217773,0.9439685344696045,0.32542386651039124
1771628596433102800,17.615102783203124,11.716456413269043,0.7525427341461182,0.11126625537872314
1771628596451902000,17.63390185546875,11.138589859008789,0.9080761671066284,0.22851456701755524
1771628596470701000,17.652701171875,10.455438613891602,1.0923235416412354,0.5180460810661316
1771628596489500000,17.6715,9.957731246948242,0.7692924737930298,0.32542386651039124
1771628596508299300,17.69029931640625,10.736595153808594,-0.064606212079525,-0.14117653667926788
1771628596527098400,17.709098388671876,11.856435775756836,-0.7680960893630981,0.06340979784727097
1771628596545897200,17.727897216796876,11.040483474731445,-0.7250252366065979,0.6484549641609192
1771628596564696600,17.746696533203124,8.787641525268555,-0.20817556977272034,0.6221339106559753
1771628596583495400,17.765495361328124,7.2681989669799805,0.26560330390930176,0.1866401731967926
1771628596602294500,17.78429443359375,7.3399834632873535,0.5312066078186035,0.04905286431312561
1771628596621094000,17.803093994140625,8.214560508728027,0.4701896607875824,0.2560320198535919
1771628596639892700,17.821892822265625,8.559126853942871,0.2632105052471161,0.20578274130821228
1771628596658691800,17.84069189453125,9.664610862731934,-0.02751746028661728,0.4701896607875824
1771628596677491000,17.859490966796876,11.229516983032227,-0.2069791555404663,0.623330295085907
1771628596696290000,17.8782900390625,12.129218101501465,0.015553346835076809,0.711864709854126
1771628596715089200,17.897089111328125,10.30469036102295,0.5000999569892883,0.28594231605529785
1771628596733888300,17.91588818359375,9.192028045654297,0.8458628058433533,0.08255238085985184
1771628596752687400,17.934687255859377,8.831908226013184,0.836291491985321,0.07178468257188797
1771628596771486500,17.953486572265625,8.695517539978027,0.6616154313087463,-0.2548356056213379
1771628596790285600,17.97228564453125,8.542376518249512,0.5754738450050354,-0.5324030518531799
1771628596809084700,17.991084716796873,8.742177963256836,0.49172505736351013,-0.589830756187439
1771628596827883800,18.0098837890625,9.20279598236084,0.4414757788181305,-0.7250252366065979
1771628596846683000,18.028682861328125,9.541379928588867,0.45583271980285645,-0.7704889178276062
1771628596865482000,18.04748193359375,9.942177772521973,0.5072783827781677,-0.5778666734695435
1771628596884281000,18.066281005859373,10.454241752624512,0.4941178858280182,-0.41994038224220276
1771628596903080200,18.085080078125,10.776076316833496,0.5419743061065674,-0.638883650302887
1771628596921879300,18.10387939453125,10.85145092010498,0.5982056856155396,-0.6185446381568909
1771628596940678400,18.122678466796874,10.907682418823242,0.6795616149902344,-0.39960137009620667
1771628596959477500,18.1414775390625,10.284351348876953,0.6340979933738708,-0.4019941985607147
1771628596978276600,18.160276611328126,9.772287368774414,0.6137589812278748,-0.4043870270252228
1771628596997075700,18.17907568359375,9.984052658081055,0.7896314859390259,-0.03349951654672623
1771628597015874800,18.197874755859374,10.301101684570312,1.1162517070770264,0.3565305769443512
1771628597034674000,18.216673828125,10.418350219726562,1.2729816436767578,0.745364248752594
1771628597053473000,18.23547314453125,10.99143123626709,1.0827522277832031,1.129412293434143
1771628597072272100,18.254272216796874,11.3778715133667,0.8374879360198975,1.0683952569961548
1771628597091071200,18.2730712890625,10.437492370605469,0.7310073375701904,0.4989035129547119
1771628597109870300,18.291870361328126,9.535398483276367,0.5754738450050354,0.09810572862625122
1771628597128669400,18.31066943359375,9.937392234802246,0.25004997849464417,0.15912270545959473
1771628597147468500,18.329468505859374,10.467402458190918,-0.19381862878799438,0.5443671345710754
1771628597166267600,18.348267578125,10.630114555358887,-0.275174617767334,0.9631111025810242
1771628597185066800,18.367066650390626,9.383454322814941,0.1423729509115219,0.9822536706924438
1771628597203865900,18.385865966796874,8.018348693847656,0.7369893789291382,0.8171489238739014
1771628597222664700,18.404664794921874,7.995616912841797,1.2382856607437134,0.6424728631973267
1771628597241464000,18.423464111328126,9.237491607666016,1.333998680114746,0.914058268070221
1771628597260263200,18.44226318359375,9.969695091247559,0.9906286001205444,0.6089733839035034
1771628597279062000,18.46106201171875,11.016555786132812,0.641276478767395,0.35413774847984314
1771628597297861400,18.479861328125,11.840883255004883,0.38763725757598877,0.21774685382843018
1771628597316660200,18.49866015625,11.399407386779785,0.39601215720176697,0.21774685382843018
1771628597335459300,18.517459228515627,9.982855796813965,0.6065805554389954,0.275174617767334
1771628597354258700,18.5362587890625,8.708678245544434,0.8195417523384094,0.592223584651947
1771628597373057500,18.5550576171875,7.530212879180908,0.9487541913986206,0.7525427341461182
1771628597391856600,18.573856689453127,7.619943618774414,0.98703932762146,0.7070791125297546
1771628597410655700,18.59265576171875,8.817551612854004,0.9212366938591003,0.7680960893630981
1771628597429454800,18.611454833984375,9.189635276794434,0.9918249845504761,0.7417750358581543
1771628597448254000,18.63025390625,9.280562400817871,1.0612168312072754,0.4701896607875824
1771628597467053000,18.649052978515623,10.01874828338623,1.0336993932724,0.13040883839130402
1771628597485852200,18.66785205078125,10.553544044494629,1.0325030088424683,0.019142581149935722
1771628597504651300,18.6866513671875,10.326226234436035,1.0671988725662231,0.2835494875907898
1771628597523450400,18.705450439453124,9.835697174072266,1.0971091985702515,0.2069791555404663
1771628597542249500,18.72424951171875,9.381061553955078,1.1186445951461792,-0.07657032459974289
1771628597561048600,18.743048583984375,9.515059471130371,1.1700903177261353,-0.2955136001110077
1771628597579847700,18.76184765625,10.445867538452148,1.1306086778640747,-0.1136590763926506
1771628597598646800,18.780646728515624,10.835897445678711,1.069591760635376,0.26560330390930176
1771628597617446000,18.79944580078125,10.460224151611328,1.0301101207733154,0.28594231605529785
1771628597636245000,18.818244873046876,10.4219388961792,1.1078768968582153,0.015553346835076809
1771628597655044000,18.837044189453124,10.101301193237305,1.2801600694656372,-0.3026920557022095
1771628597673843200,18.85584326171875,9.672985076904297,1.2993026971817017,-0.6843472719192505
1771628597692642300,18.874642333984376,10.249655723571777,1.1425727605819702,-0.8398807644844055
1771628597711441400,18.89344140625,11.33360481262207,0.9296116232872009,-0.6173482537269592
1771628597730240500,18.912240478515624,11.446066856384277,0.7800601720809937,-0.19740787148475647
1771628597749039600,18.93103955078125,10.729416847229004,0.5563312768936157,-0.1459621787071228
1771628597767838700,18.949838623046876,10.232906341552734,0.22612173855304718,-0.04426721855998039
1771628597786637800,18.968637939453124,10.317851066589355,-0.25722843408584595,-0.0933200865983963
1771628597805437000,18.98743701171875,10.819147109985352,-0.6137589812278748,-0.037088751792907715
1771628597824236000,19.006236083984376,10.13479995727539,-0.7345965504646301,-0.13878370821475983
1771628597843035100,19.02503515625,8.827122688293457,-0.5000999569892883,0.17228323221206665
1771628597861834200,19.043834228515625,8.346165657043457,0.09930214285850525,-0.10648060590028763
1771628597880633300,19.06263330078125,8.550751686096191,0.5240281820297241,-0.5240281820297241
1771628597908832000,19.09083203125,9.866804122924805,0.1423729509115219,0.04546362906694412
1771628597927631000,19.109631103515625,11.093125343322754,-0.11246266216039658,0.2512463629245758
1771628597946430200,19.12843017578125,11.306086540222168,0.0526420995593071,0.19980068504810333
1771628597965229300,19.147229248046877,10.322636604309082,0.48574298620224,0.061016976833343506
1771628597984028400,19.1660283203125,9.239884376525879,0.851844847202301,-0.04546362906694412
1771628598002827500,19.18482763671875,8.7445707321167,0.9367900490760803,-0.03469592705368996
1771628598021626400,19.20362646484375,9.037691116333008,0.916451096534729,0.004785645287483931
1771628598040425700,19.22242578125,9.559326171875,0.8123632669448853,0.13878370821475983
1771628598059224800,19.241224853515625,9.718449592590332,0.623330295085907,-0.007178467698395252
1771628598078024000,19.26002392578125,9.251849174499512,0.6484549641609192,-0.36729827523231506
1771628598096823000,19.278822998046873,8.702695846557617,0.973878800868988,-0.40677985548973083
1771628598115622000,19.297621826171873,8.458627700805664,1.2215359210968018,-0.37926238775253296
1771628598134421200,19.316421142578125,9.20159912109375,1.1018948554992676,-0.4295116662979126
1771628598153220400,19.335220458984374,10.077372550964355,0.7465606927871704,-0.49172505736351013
1771628598172019200,19.354019287109374,10.728219985961914,0.6065805554389954,-0.32662028074264526
1771628598190818600,19.372818603515626,10.261619567871094,0.6460621356964111,-0.02273181453347206
1771628598209617400,19.391617431640626,10.108479499816895,0.7884350419044495,0.08853443711996078
1771628598228416500,19.41041650390625,9.839286804199219,0.8398807644844055,-0.137587308883667
1771628598247215900,19.4292158203125,9.579665184020996,0.7920243144035339,-0.4259224236011505
1771628598266014700,19.4480146484375,9.945767402648926,0.7130611538887024,-0.27756741642951965
1771628598284814000,19.46681396484375,10.750951766967773,0.7920243144035339,0.10169496387243271
1771628598303613000,19.485613037109374,11.790633201599121,0.9284151792526245,0.4941178858280182
1771628598322412000,19.504412109375,12.094522476196289,1.109073281288147,0.48574298620224
1771628598341211400,19.52321142578125,11.170892715454102,1.1198409795761108,-0.1950150430202484
1771628598360010200,19.54201025390625,10.870593070983887,0.9619147181510925,-0.6125625967979431
1771628598378809300,19.560809326171874,10.569097518920898,0.576670229434967,-0.711864709854126
1771628598397608400,19.5796083984375,10.250852584838867,0.11126625537872314,-0.43908295035362244
1771628598416407600,19.598407470703126,10.055837631225586,-0.02273181453347206,0.2763710021972656
1771628598435206700,19.61720654296875,9.56770133972168,0.2907279431819916,0.8745766878128052
1771628598454005800,19.636005859375,8.117650985717773,0.8865407705307007,1.089930772781372
1771628598472804900,19.654804931640626,7.208378314971924,1.4608181715011597,1.404586911201477
1771628598491604000,19.67360400390625,7.724031448364258,1.8041882514953613,1.7934205532073975
1771628598510403000,19.692403076171875,8.673981666564941,1.8077775239944458,1.550549030303955
1771628598529202200,19.7112021484375,8.922835350036621,1.373480200767517,0.6592226624488831
1771628598548001300,19.730001220703127,10.437492370605469,0.5647061467170715,-0.035892341285943985
1771628598566800400,19.74880029296875,12.099308013916016,-0.13280165195465088,-0.22133609652519226
1771628598585599500,19.767599609375,12.492926597595215,-0.19740787148475647,-0.1782652884721756
1771628598604398600,19.786398681640627,10.219745635986328,0.41874396800994873,-0.4019941985607147
1771628598623197700,19.80519775390625,8.462217330932617,1.1593226194381714,-0.28594231605529785
1771628598641996800,19.823996826171875,7.440482139587402,1.4632110595703125,0.016749758273363113
1771628598660796000,19.8427958984375,8.132007598876953,1.3794622421264648,0.2512463629245758
1771628598679595000,19.861594970703123,9.393025398254395,1.2430713176727295,0.38644084334373474
1771628598698394000,19.88039404296875,9.294919967651367,1.3112667798995972,0.36610186100006104
1771628598717193200,19.899193115234375,8.975478172302246,1.439282774925232,0.39481574296951294
1771628598735992300,19.917992431640624,9.18843936920166,1.275374412536621,0.2715853750705719
1771628598754791400,19.93679150390625,10.04985523223877,1.0863415002822876,0.059820566326379776
1771628598773590500,19.955590576171875,10.599007606506348,1.0636097192764282,-0.3732803463935852
1771628598792389600,19.9743896484375,10.031908988952637,1.3423734903335571,-0.23808585107326508
1771628598811188700,19.993188720703124,10.068997383117676,1.3507484197616577,0.02153540402650833
1771628598829987800,20.01198779296875,10.591829299926758,1.0636097192764282,0.3086741268634796
1771628598848787000,20.030786865234376,11.102697372436523,0.727418065071106,0.3840480446815491
1771628598867586000,20.0495859375,11.523834228515625,0.7190431952476501,0.5563312768936157
1771628598886385200,20.06838525390625,10.963912963867188,0.8745766878128052,0.7154539823532104
1771628598905184300,20.087184326171876,10.542776107788086,0.9176474809646606,0.6305087804794312
1771628598923983400,20.1059833984375,10.924431800842285,0.6843472719192505,0.31106695532798767
1771628598942782500,20.124782470703124,11.94736385345459,0.6221339106559753,0.3122633695602417
1771628598961581600,20.14358154296875,10.969895362854004,1.0660024881362915,0.35413774847984314
1771628598980380700,20.162380615234376,8.811569213867188,1.444068431854248,0.16151553392410278
1771628598999179800,20.1811796875,8.097311973571777,1.0767701864242554,0.12323036789894104
1771628599017979000,20.199978759765624,10.2747802734375,0.016749758273363113,0.058624155819416046
1771628599036778000,20.218778076171876,11.304890632629395,-0.7190431952476501,-0.3696911036968231
1771628599055577000,20.2375771484375,10.49970531463623,-0.8865407705307007,-0.1423729509115219
1771628599074376200,20.256376220703125,9.44447135925293,-0.5982056856155396,0.31345975399017334
1771628599093175300,20.27517529296875,9.011369705200195,-0.3732803463935852,0.6448656916618347
1771628599111974400,20.293974365234376,9.308079719543457,-0.1698904037475586,0.519242525100708
1771628599130773500,20.3127734375,9.869196891784668,-0.005982056725770235,0.2189432680606842
1771628599149572600,20.331572509765625,9.829715728759766,0.1866401731967926,-0.15074782073497772
1771628599168371700,20.350371826171877,9.956535339355469,0.3684946894645691,-0.2835494875907898
1771628599187170800,20.3691708984375,9.784252166748047,0.5108676552772522,-0.17228323221206665
1771628599205970000,20.387969970703125,9.425328254699707,0.48454657196998596,-0.06580262631177902
1771628599224769000,20.40676904296875,9.396614074707031,0.5240281820297241,0.02273181453347206
1771628599243568000,20.425568115234373,9.409774780273438,0.6400800347328186,0.040677983313798904
1771628599262367200,20.4443671875,9.136993408203125,0.7956135272979736,-0.039481572806835175
1771628599281166300,20.463166259765625,8.678768157958984,0.7968099117279053,-0.058624155819416046
1771628599299965400,20.48196533203125,8.554341316223145,0.638883650302887,-0.259621262550354
1771628599318764500,20.5007646484375,9.20997428894043,0.5024927258491516,-0.41515472531318665
1771628599337563600,20.519563720703125,9.817750930786133,0.6041877269744873,-0.28953152894973755
1771628599356362800,20.53836279296875,9.498309135437012,0.6604190468788147,-0.2883351147174835
1771628599375161900,20.557161865234374,9.418149948120117,0.7154539823532104,-0.12323036789894104
1771628599393961000,20.5759609375,9.860821723937988,0.7501499056816101,-0.19740787148475647
1771628599412760000,20.594760009765626,10.028319358825684,0.8530412912368774,-0.37088751792907715
1771628599431559400,20.613559326171874,10.382457733154297,0.8889335989952087,-0.6173482537269592
1771628599450358300,20.632358154296874,10.308279991149902,0.7692924737930298,-0.763310432434082
1771628599469157400,20.651157470703126,9.844072341918945,0.6819544434547424,-1.0013962984085083
1771628599487956500,20.66995654296875,9.45164966583252,0.6628118753433228,-1.1928220987319946
1771628599506755600,20.688755615234374,9.67777156829834,0.9188438653945923,-0.8997012972831726
1771628599525555000,20.707554931640626,9.766305923461914,1.6175481081008911,-0.27397820353507996
1771628599544353800,20.726353759765626,9.53779125213623,1.7922241687774658,0.7800601720809937
1771628599563153200,20.745153076171874,10.919646263122559,1.2454642057418823,1.5361921787261963
1771628599581952000,20.763951904296874,12.89492130279541,0.7501499056816101,1.2921242713928223
1771628599600751000,20.782751220703126,12.448659896850586,0.46420758962631226,0.5156532526016235
1771628599619550500,20.801550537109375,10.552348136901855,0.2907279431819916,0.4295116662979126
1771628599638349300,20.820349365234375,9.773484230041504,-0.09810572862625122,0.5694918036460876
1771628599657148700,20.839148681640626,9.900303840637207,-0.2919243574142456,0.833898663520813
1771628599675947500,20.857947509765626,9.91825008392334,-0.12203395366668701,0.900897741317749
1771628599694747000,20.876746826171875,9.052047729492188,0.6855437159538269,0.7992027401924133
1771628599713546000,20.8955458984375,7.668996810913086,1.506281852722168,0.537188708782196
1771628599732344800,20.9143447265625,7.899903774261475,1.7479569911956787,0.32542386651039124
1771628599751144200,20.933144287109375,9.7938232421875,1.2454642057418823,0.24167509377002716
1771628599769943000,20.951943115234375,11.641081809997559,0.5264210104942322,0.17587246000766754
1771628599788742400,20.970742431640623,12.656835556030273,0.22851456701755524,0.0933200865983963
1771628599807541500,20.98954150390625,11.949756622314453,0.47976094484329224,-0.1052841991186142
1771628599826340600,21.008340576171875,9.8871431350708,0.9284151792526245,-0.19740787148475647
1771628599845139700,21.0271396484375,8.606983184814453,1.1808580160140991,-0.061016976833343506
1771628599863938800,21.045938720703123,7.708477973937988,1.3100703954696655,0.17706887423992157
1771628599882738000,21.064738037109375,7.76470947265625,1.3316057920455933,0.4103690981864929
1771628599901537000,21.083537109375,8.475378036499023,1.2550355195999146,0.3326023519039154
1771628599920336100,21.102336181640624,9.05444049835205,1.1078768968582153,0.2715853750705719
1771628599939135200,21.12113525390625,9.511469841003418,1.0061819553375244,0.21774685382843018
1771628599957934300,21.139934326171876,10.045069694519043,1.0061819553375244,0.12323036789894104
1771628599976733400,21.1587333984375,10.191031455993652,1.077966570854187,0.004785645287483931
1771628599995532500,21.177532470703124,10.01037311553955,1.2167502641677856,0.04905286431312561
1771628600014331600,21.19633154296875,9.903892517089844,1.3627125024795532,0.04307080805301666
1771628600033130800,21.215130859375,9.705288887023926,1.3399807214736938,-0.008374879136681557
1771628600051929900,21.233929931640624,9.9469633102417,1.2418749332427979,-0.031106693670153618
1771628600070729000,21.25272900390625,10.412367820739746,1.0528420209884644,0
1771628600089528000,21.271528076171876,10.831111907958984,1.0049854516983032,0.1136590763926506
1771628600108327200,21.2903271484375,10.552348136901855,1.207179069519043,0.1902294009923935
1771628600127126300,21.309126220703124,9.912267684936523,1.3100703954696655,0.2021935135126114
1771628600145925400,21.32792529296875,9.66819953918457,1.2729816436767578,-0.137587308883667
1771628600164724500,21.346724365234376,9.603593826293945,1.155733346939087,-0.6161518096923828
1771628600183523600,21.365523681640624,10.199406623840332,1.1365907192230225,-0.9583254456520081
1771628600202322700,21.38432275390625,10.900503158569336,1.2813565731048584,-0.7896314859390259
1771628600221121800,21.403121826171876,10.928021430969238,1.3818551301956177,-0.37926238775253296
1771628600239921000,21.4219208984375,10.36929702758789,1.28255295753479,-0.05503492057323456
1771628600268119600,21.45011962890625,10.372885704040527,0.8506484627723694,0.3206382393836975
1771628600286918700,21.468918701171877,11.320444107055664,0.22971096634864807,0.30149564146995544
1771628600305717800,21.4877177734375,12.197413444519043,-0.4007977843284607,0.259621262550354
1771628600324516900,21.506516845703125,10.971092224121094,-0.5072783827781677,0.09810572862625122
1771628600343316000,21.52531591796875,8.912068367004395,-0.1663011759519577,0.2021935135126114
1771628600362115000,21.544114990234377,7.915457248687744,0.22612173855304718,0.4175475537776947
1771628600380914200,21.5629140625,7.45364236831665,0.39960137009620667,0.20458634197711945
1771628600399713300,21.58171337890625,7.853243827819824,0.3086741268634796,-0.0526420995593071
1771628600427912000,21.609911865234373,9.88833999633789,-0.1902294009923935,0.37088751792907715
1771628600446711300,21.628711181640625,10.97587776184082,-0.2763710021972656,0.25722843408584595
1771628600465510100,21.64751025390625,10.676774978637695,0.09092725813388824,0.13998012244701385
1771628600484309500,21.6663095703125,9.585647583007812,0.760917603969574,-0.33858439326286316
1771628600503108400,21.6851083984375,8.937192916870117,1.1772687435150146,-0.4785645306110382
1771628600521907500,21.703907470703125,8.933603286743164,1.0803594589233398,-0.4953143000602722
1771628600540706800,21.722706787109374,9.244669914245605,0.7896314859390259,-0.4414757788181305
1771628600559505700,21.741505615234374,9.236295700073242,0.7932206988334656,-0.605384111404419
1771628600578305000,21.760304931640626,9.135796546936035,0.8554341197013855,-0.794417142868042
1771628600597103900,21.779103759765626,9.292527198791504,0.7573283910751343,-0.9200403094291687
1771628600615903200,21.7979033203125,9.80219841003418,0.5395814776420593,-0.6376872062683105
1771628600634702300,21.816702392578126,10.031908988952637,0.4701896607875824,-0.4342973232269287
1771628600653501400,21.83550146484375,9.681360244750977,0.6675975322723389,-0.3840480446815491
1771628600672300500,21.854300537109374,9.486345291137695,0.849452018737793,-0.4259224236011505
1771628600691099600,21.873099609375,9.6466646194458,0.8937192559242249,-0.5694918036460876
1771628600709898800,21.891898681640626,10.183853149414062,0.8578268885612488,-0.7058826684951782
1771628600728697900,21.91069775390625,10.577472686767578,0.7561319470405579,-0.6699903607368469
1771628600747497000,21.9294970703125,10.77129077911377,0.6364908218383789,-0.5359922647476196
1771628600766296000,21.948296142578126,10.545169830322266,0.4618147611618042,-0.2667997181415558
1771628600785095200,21.96709521484375,10.05823040008545,0.6963114142417908,0.07058826833963394
1771628600803894300,21.985894287109375,9.597611427307129,1.2693923711776733,0.09451649338006973
1771628600822693400,22.004693359375,9.759127616882324,1.5290136337280273,0.38644084334373474
1771628600841492500,22.023492431640626,11.405388832092285,1.1676974296569824,0.5252245664596558
1771628600860291600,22.04229150390625,13.009777069091797,0.5324030518531799,0.22372891008853912
1771628600879090700,22.061090576171875,12.776476860046387,0.19740787148475647,0.05024927482008934
1771628600897889800,22.079889892578127,11.37069320678711,0.22133609652519226,0.33499518036842346
1771628600916689000,22.09868896484375,10.386046409606934,0.24406790733337402,0.39960137009620667
1771628600935488000,22.117488037109375,9.57607650756836,0.10289137065410614,0.27756741642951965
1771628600963686700,22.145686767578123,9.19442081451416,0.29312077164649963,0.7932206988334656
1771628600982485800,22.16448583984375,8.358129501342773,0.7010970115661621,0.9296116232872009
1771628601001284900,22.183284912109375,7.992027759552002,1.0839486122131348,0.8709874153137207
1771628601020084000,22.202083984375,8.528019905090332,1.184447169303894,0.7728816866874695
1771628601048282600,22.23028271484375,8.641678810119629,0.9320043921470642,0.5180460810661316
1771628601067081700,22.249081787109375,8.957531929016113,0.7070791125297546,0.2225325107574463
1771628601095280600,22.27728076171875,10.638489723205566,0.3038884699344635,0.039481572806835175
1771628601114079500,22.29607958984375,11.314461708068848,0.26201409101486206,0.12801600992679596
1771628601132878600,22.314878662109376,10.930414199829102,0.4259224236011505,0.13040883839130402
1771628601161077500,22.343077392578124,9.973284721374512,0.8865407705307007,0.3517449200153351
1771628601179876600,22.361876708984376,9.783055305480957,1.0887342691421509,0.2069791555404663
1771628601198675700,22.38067578125,9.80219841003418,1.1928220987319946,0.24287149310112
1771628601217474800,22.399474853515624,9.680164337158203,1.2167502641677856,0.349352091550827
1771628601236274000,22.41827392578125,9.787840843200684,1.2382856607437134,0.46779683232307434
1771628601255073000,22.437072998046876,9.678967475891113,1.317248821258545,0.38644084334373474
1771628601273872100,22.4558720703125,9.604789733886719,1.454836130142212,0.42831525206565857
1771628601292671200,22.474671142578124,9.592825889587402,1.534995675086975,0.5132604837417603
1771628601311470300,22.49347021484375,9.66102123260498,1.4584254026412964,0.4893322288990021
1771628601330269400,22.51226953125,9.832108497619629,1.3304094076156616,0.2799602448940277
1771628601349068500,22.531068603515624,9.634700775146484,1.2131611108779907,0.07776673883199692
1771628601367867600,22.54986767578125,9.609575271606445,1.1665010452270508,-0.37088751792907715
1771628601386666800,22.568666748046876,9.729216575622559,1.046859860420227,-0.729810893535614
1771628601405465900,22.5874658203125,9.915857315063477,1.0492527484893799,-0.6915257573127747
1771628601424265000,22.606264892578125,9.903892517089844,1.1473584175109863,-0.5575276613235474
1771628601443064000,22.62506396484375,9.572486877441406,1.3507484197616577,-0.5000999569892883
1771628601461863200,22.64386328125,9.343972206115723,1.6211373805999756,-0.35533416271209717
1771628601480662300,22.662662353515625,9.69930648803711,1.5194423198699951,-0.1746760457754135
1771628601499461400,22.68146142578125,11.187642097473145,0.9942178130149841,0.16749759018421173
1771628601518260500,22.700260498046877,12.659228324890137,0.6520441770553589,0.2955136001110077
1771628601537059800,22.719059814453125,12.473784446716309,0.5694918036460876,0.4570291340351105
1771628601555858700,22.737858642578125,10.65523910522461,0.5000999569892883,0.3936193287372589
1771628601574658000,22.756657958984373,9.78544807434082,0.4713860750198364,0.4007977843284607
1771628601593457000,22.775456787109373,10.395618438720703,0.2356930375099182,0.4701896607875824
1771628601612256300,22.79425634765625,11.170892715454102,-0.09690931439399719,0.28953152894973755
1771628601631055400,22.813055419921874,10.832307815551758,-0.20817556977272034,0.13040883839130402
1771628601649854500,22.8318544921875,9.445667266845703,-0.15553347766399384,-0.020338991656899452
1771628601668653600,22.850653564453125,8.635697364807129,-0.059820566326379776,0.02632104977965355
1771628601687452700,22.86945263671875,8.360522270202637,-0.11605189740657806,-0.08614161610603333
1771628601706251800,22.888251708984374,9.047262191772461,-0.23808585107326508,-0.11006984114646912
1771628601725051000,22.90705078125,9.361918449401855,-0.28115665912628174,0.016749758273363113
1771628601743850000,22.92585009765625,9.122636795043945,-0.14356936514377594,0.3756731450557709
1771628601762649000,22.944649169921874,9.437292098999023,0.09930214285850525,0.5814558863639832
1771628601781448200,22.9634482421875,9.631111145019531,0.3888336718082428,0.37806597352027893
1771628601809646800,22.991646728515626,8.892925262451172,0.8111668825149536,0.16031911969184875
1771628601828446000,23.010446044921874,9.189635276794434,0.849452018737793,0.04426721855998039
1771628601847245000,23.0292451171875,10.15872859954834,0.6293123364448547,0.1495514214038849
1771628601866044200,23.048044189453126,10.412367820739746,0.46420758962631226,-0.15912270545959473
1771628601884843300,23.06684326171875,9.930213928222656,0.4941178858280182,-0.3565305769443512
1771628601903642400,23.085642333984374,9.339186668395996,0.6939185857772827,-0.43908295035362244
1771628601922441500,23.10444140625,8.964710235595703,0.8709874153137207,-0.7334001660346985
1771628601941240600,23.123240478515626,9.175278663635254,0.9343972206115723,-0.7848458290100098
1771628601960040000,23.1420400390625,9.53659439086914,0.8374879360198975,-0.5946164131164551
1771628601978838800,23.1608388671875,10.01156997680664,0.7549355626106262,-0.43190449476242065
1771628601997638100,23.17963818359375,10.156335830688477,0.7262216806411743,-0.519242525100708
1771628602016437000,23.19843701171875,10.16710376739502,0.7668996453285217,-0.5623133182525635
1771628602035236400,23.217236328125,9.919445991516113,0.7680960893630981,-0.45224347710609436
1771628602054035500,23.236035400390627,9.850054740905762,0.7322037220001221,-0.3684946894645691
1771628602072834600,23.25483447265625,9.826126098632812,0.7022934556007385,-0.33379876613616943
1771628602101033200,23.283033203125,10.100104331970215,0.8470591902732849,-0.1950150430202484
1771628602119832300,23.301832275390623,10.13479995727539,1.1700903177261353,-0.02392822690308094
1771628602138631400,23.32063134765625,10.315458297729492,1.3782658576965332,0.20099709928035736
1771628602157430500,23.339430419921875,10.789237022399902,1.2179467678070068,0.4773681163787842
1771628602176229600,23.358229736328123,11.20917797088623,1.062413215637207,0.41874396800994873
1771628602195028700,23.37702880859375,10.125228881835938,1.0253244638442993,0.11485548317432404
1771628602213827800,23.395827880859375,9.42054271697998,1.0336993932724,-0.23449662327766418
1771628602232627000,23.414626953125,10.05823040008545,0.5982056856155396,-0.10169496387243271
1771628602251426000,23.433426025390624,10.703095436096191,0.02751746028661728,0.5359922647476196
1771628602270225200,23.45222509765625,10.658828735351562,-0.12921242415905,1.2179467678070068
1771628602289024300,23.471024169921876,10.040284156799316,0.22133609652519226,1.1665010452270508
1771628602307823400,23.4898232421875,9.144171714782715,0.6699903607368469,0.8901300430297852
1771628602326622500,23.50862255859375,9.083154678344727,1.0049854516983032,0.7908278703689575
1771628602345421600,23.527421630859376,9.355937004089355,1.2502498626708984,0.6628118753433228
1771628602364220700,23.546220703125,9.584450721740723,1.293320655822754,0.6999006271362305
1771628602383019800,23.565019775390624,10.189835548400879,1.1282159090042114,0.5718846321105957
1771628602401819000,23.58381884765625,10.817951202392578,0.8913264274597168,0.30987054109573364
1771628602420618000,23.602617919921876,11.026126861572266,0.6951149702072144,0.005982056725770235
1771628602439417000,23.6214169921875,10.243673324584961,0.7310073375701904,-0.2799602448940277
1771628602458216200,23.64021630859375,8.835497856140137,0.8937192559242249,-0.14356936514377594
1771628602477015600,23.659015625,8.451449394226074,1.0037890672683716,-0.10648060590028763
1771628602495814400,23.677814453125,8.335397720336914,0.9702895879745483,-0.13160525262355804
1771628602514613800,23.69661376953125,8.858229637145996,0.9643075466156006,-0.008374879136681557
1771628602533412600,23.71541259765625,8.989834785461426,1.0169496536254883,0.05503492057323456
1771628602552212000,23.7342119140625,8.908478736877441,1.2023934125900269,-0.1423729509115219
1771628602571011000,23.753010986328125,9.440881729125977,1.3926228284835815,-0.21774685382843018
1771628602589810200,23.77181005859375,9.93978500366211,1.4249259233474731,-0.061016976833343506
1771628602608609300,23.790609375,10.675578117370605,1.3244273662567139,0.2787638306617737
1771628602627408400,23.809408447265625,10.721041679382324,1.124626636505127,0.32183465361595154
1771628602646207500,23.82820751953125,9.903892517089844,1.1425727605819702,0.2967100143432617
1771628602665006600,23.847006591796877,9.011369705200195,1.3316057920455933,0.12323036789894104
1771628602683805700,23.8658056640625,8.96949577331543,1.2885349988937378,-0.02392822690308094
1771628602702604800,23.884604736328125,9.736394882202148,1.0492527484893799,0.1663011759519577
1771628602721404000,23.90340380859375,10.187442779541016,1.0133603811264038,0.24646073579788208
1771628602740203000,23.922203125,9.89551830291748,1.3280165195465088,0.3086741268634796
1771628602759002000,23.941002197265625,9.847661972045898,1.4500504732131958,0.06580262631177902
1771628602777801200,23.95980126953125,10.53081226348877,1.4297115802764893,-0.20099709928035736
1771628602796600300,23.978600341796874,10.934002876281738,1.168893814086914,-0.5563312768936157
1771628602815399400,23.9973994140625,11.227124214172363,0.7704889178276062,-0.98703932762146
1771628602834198500,24.016198486328125,11.980862617492676,0.5599204897880554,-0.7334001660346985
1771628602852997600,24.03499755859375,12.0933256149292,0.40677985548973083,0.12681959569454193
1771628602871796700,24.053796630859374,11.169695854187012,0.2715853750705719,1.0444670915603638
1771628602890595800,24.072595947265626,10.674382209777832,0.2225325107574463,1.0049854516983032
1771628602909395000,24.09139501953125,10.883753776550293,0.13160525262355804,1.0133603811264038
1771628602928194000,24.110194091796874,10.338190078735352,0.040677983313798904,0.7154539823532104
1771628602946993200,24.1289931640625,9.44327449798584,-0.02632104977965355,0.26201409101486206
1771628602965792300,24.147792236328126,8.468199729919434,-0.008374879136681557,0.07178468257188797
1771628602984591400,24.16659130859375,8.126026153564453,0.02871387079358101,0.17946170270442963
1771628603003390500,24.185390380859374,8.679964065551758,-0.12442677468061447,0.259621262550354
1771628603022189800,24.20418994140625,9.645467758178711,-0.25004997849464417,0.15314064919948578
1771628603040988700,24.22298876953125,9.89432144165039,-0.137587308883667,0.20578274130821228
1771628603059788000,24.2417880859375,9.842875480651855,0.07417750358581543,0.2871387302875519
1771628603078587000,24.2605869140625,9.745966911315918,0.2069791555404663,0.10169496387243271
1771628603097386200,24.27938623046875,9.675378799438477,0.28115665912628174,0.029910283163189888
1771628603116185300,24.298185302734375,9.870393753051758,0.4247260093688965,-0.019142581149935722
